[
  {
    "subject_id": 2861,
    "trial_index": 4,
    "type": 1,
    "item": 1,
    "stimulus": -41,
    "response": 0,
    "correct": 1,
    "rt_fast": 0,
    "rt": 21285,
    "score": 2,
    "points_awarded": 49,
    "timestamp": "2025-01-20T15:38:56.549Z"
  },
  {
    "subject_id": 1929,
    "trial_index": 4,
    "type": 1,
    "item": 1,
    "stimulus": -41,
    "response": 0,
    "correct": 1,
    "rt_fast": 0,
    "rt": 16373,
    "score": 2,
    "points_awarded": 49,
    "timestamp": "2025-02-17T15:38:56.549Z"
  },
  {
    "subject_id": 3668,
    "trial_index": 1,
    "type": 1,
    "item": 1,
    "stimulus": -41,
    "response": 0,
    "correct": 1,
    "rt_fast": 0,
    "rt": 62980,
    "score": 2,
    "points_awarded": 49,
    "timestamp": "2025-01-20T15:38:56.549Z"
  },
  {
    "subject_id": 3832,
    "trial_index": 12,
    "type": 1,
    "item": 1,
    "stimulus": -41,
    "response": 0,
    "correct": 1,
    "rt_fast": 0,
    "rt": 22269,
    "score": 2,
    "points_awarded": 49,
    "timestamp": "2025-01-13T15:38:56.549Z"
  },
  {
    "subject_id": 1802,
    "trial_index": 5,
    "type": 1,
    "item": 1,
    "stimulus": -41,
    "response": 0,
    "correct": 1,
    "rt_fast": 0,
    "rt": 24826,
    "score": 2,
    "points_awarded": 49,
    "timestamp": "2025-01-20T15:38:56.549Z"
  },
  {
    "subject_id": 3923,
    "trial_index": 4,
    "type": 1,
    "item": 1,
    "stimulus": -41,
    "response": 0,
    "correct": 1,
    "rt_fast": 0,
    "rt": 38347,
    "score": 2,
    "points_awarded": 49,
    "timestamp": "2025-01-20T15:38:56.549Z"
  },
  {
    "subject_id": 3511,
    "trial_index": 3,
    "type": 1,
    "item": 1,
    "stimulus": -41,
    "response": 0,
    "correct": 1,
    "rt_fast": 0,
    "rt": 33407,
    "score": 2,
    "points_awarded": 49,
    "timestamp": "2025-01-27T15:38:56.549Z"
  },
  {
    "subject_id": 3289,
    "trial_index": 3,
    "type": 1,
    "item": 1,
    "stimulus": -41,
    "response": 0,
    "correct": 1,
    "rt_fast": 0,
    "rt": 23898,
    "score": 2,
    "points_awarded": 49,
    "timestamp": "2025-01-27T15:38:56.549Z"
  },
  {
    "subject_id": 3675,
    "trial_index": 11,
    "type": 1,
    "item": 1,
    "stimulus": -41,
    "response": 0,
    "correct": 1,
    "rt_fast": 0,
    "rt": 31958,
    "score": 2,
    "points_awarded": 49,
    "timestamp": "2025-02-17T15:38:56.549Z"
  },
  {
    "subject_id": 3666,
    "trial_index": 16,
    "type": 1,
    "item": 1,
    "stimulus": -41,
    "response": 0,
    "correct": 1,
    "rt_fast": 0,
    "rt": 15665,
    "score": 2,
    "points_awarded": 49,
    "timestamp": "2025-01-20T15:38:56.549Z"
  },
  {
    "subject_id": 3507,
    "trial_index": 2,
    "type": 1,
    "item": 1,
    "stimulus": -41,
    "response": 0,
    "correct": 1,
    "rt_fast": 0,
    "rt": 45077,
    "score": 2,
    "points_awarded": 49,
    "timestamp": "2025-01-27T15:38:56.549Z"
  },
  {
    "subject_id": 3931,
    "trial_index": 2,
    "type": 1,
    "item": 1,
    "stimulus": -41,
    "response": 0,
    "correct": 1,
    "rt_fast": 0,
    "rt": 36248,
    "score": 2,
    "points_awarded": 49,
    "timestamp": "2025-01-20T15:38:56.549Z"
  },
  {
    "subject_id": 3208,
    "trial_index": 11,
    "type": 1,
    "item": 1,
    "stimulus": -41,
    "response": 0,
    "correct": 1,
    "rt_fast": 0,
    "rt": 39016,
    "score": 2,
    "points_awarded": 49,
    "timestamp": "2025-01-13T15:38:56.549Z"
  },
  {
    "subject_id": 2078,
    "trial_index": 6,
    "type": 1,
    "item": 1,
    "stimulus": -41,
    "response": 0,
    "correct": 1,
    "rt_fast": 0,
    "rt": 21740,
    "score": 2,
    "points_awarded": 49,
    "timestamp": "2025-01-27T15:38:56.549Z"
  },
  {
    "subject_id": 3509,
    "trial_index": 3,
    "type": 1,
    "item": 1,
    "stimulus": -41,
    "response": 0,
    "correct": 1,
    "rt_fast": 0,
    "rt": 28832,
    "score": 2,
    "points_awarded": 49,
    "timestamp": "2025-01-27T15:38:56.549Z"
  },
  {
    "subject_id": 3667,
    "trial_index": 4,
    "type": 1,
    "item": 1,
    "stimulus": -41,
    "response": 0,
    "correct": 1,
    "rt_fast": 0,
    "rt": 40093,
    "score": 2,
    "points_awarded": 49,
    "timestamp": "2025-01-20T15:38:56.549Z"
  },
  {
    "subject_id": 3919,
    "trial_index": 2,
    "type": 1,
    "item": 1,
    "stimulus": -41,
    "response": 0,
    "correct": 1,
    "rt_fast": 0,
    "rt": 18447,
    "score": 2,
    "points_awarded": 49,
    "timestamp": "2025-01-20T15:38:56.549Z"
  },
  {
    "subject_id": 1877,
    "trial_index": 6,
    "type": 1,
    "item": 1,
    "stimulus": -41,
    "response": 0,
    "correct": 1,
    "rt_fast": 0,
    "rt": 23940,
    "score": 2,
    "points_awarded": 49,
    "timestamp": "2025-02-10T15:38:56.549Z"
  },
  {
    "subject_id": 3280,
    "trial_index": 1,
    "type": 1,
    "item": 1,
    "stimulus": -41,
    "response": 0,
    "correct": 1,
    "rt_fast": 0,
    "rt": 36239,
    "score": 2,
    "points_awarded": 49,
    "timestamp": "2025-01-27T15:38:56.549Z"
  },
  {
    "subject_id": 1910,
    "trial_index": 3,
    "type": 1,
    "item": 1,
    "stimulus": -41,
    "response": 0,
    "correct": 1,
    "rt_fast": 0,
    "rt": 67769,
    "score": 2,
    "points_awarded": 49,
    "timestamp": "2025-02-17T15:38:56.549Z"
  },
  {
    "subject_id": 3914,
    "trial_index": 4,
    "type": 1,
    "item": 1,
    "stimulus": -41,
    "response": 0,
    "correct": 1,
    "rt_fast": 0,
    "rt": 33518,
    "score": 2,
    "points_awarded": 49,
    "timestamp": "2025-01-20T15:38:56.549Z"
  },
  {
    "subject_id": 3515,
    "trial_index": 3,
    "type": 1,
    "item": 1,
    "stimulus": -41,
    "response": 0,
    "correct": 1,
    "rt_fast": 0,
    "rt": 50362,
    "score": 2,
    "points_awarded": 49,
    "timestamp": "2025-01-27T15:38:56.549Z"
  },
  {
    "subject_id": 3611,
    "trial_index": 1,
    "type": 1,
    "item": 1,
    "stimulus": -41,
    "response": 0,
    "correct": 1,
    "rt_fast": 0,
    "rt": 41846,
    "score": 2,
    "points_awarded": 49,
    "timestamp": "2025-01-27T15:38:56.549Z"
  },
  {
    "subject_id": 2268,
    "trial_index": 6,
    "type": 1,
    "item": 1,
    "stimulus": -41,
    "response": 0,
    "correct": 1,
    "rt_fast": 0,
    "rt": 7302,
    "score": 2,
    "points_awarded": 49,
    "timestamp": "2025-01-27T15:38:56.549Z"
  },
  {
    "subject_id": 2981,
    "trial_index": 5,
    "type": 1,
    "item": 1,
    "stimulus": -41,
    "response": 0,
    "correct": 1,
    "rt_fast": 0,
    "rt": 21712,
    "score": 2,
    "points_awarded": 49,
    "timestamp": "2025-01-13T15:38:56.549Z"
  },
  {
    "subject_id": 2862,
    "trial_index": 6,
    "type": 1,
    "item": 1,
    "stimulus": -41,
    "response": 0,
    "correct": 1,
    "rt_fast": 0,
    "rt": 14420,
    "score": 2,
    "points_awarded": 49,
    "timestamp": "2025-01-20T15:38:56.549Z"
  },
  {
    "subject_id": 2076,
    "trial_index": 9,
    "type": 1,
    "item": 1,
    "stimulus": -43,
    "response": 3,
    "correct": 1,
    "rt_fast": 0,
    "rt": 24282,
    "score": 0,
    "points_awarded": 0,
    "timestamp": "2025-01-27T15:38:56.549Z"
  },
  {
    "subject_id": 1801,
    "trial_index": 1,
    "type": 1,
    "item": 1,
    "stimulus": -41,
    "response": 0,
    "correct": 1,
    "rt_fast": 0,
    "rt": 21329,
    "score": 2,
    "points_awarded": 49,
    "timestamp": "2025-01-20T15:38:56.549Z"
  },
  {
    "subject_id": 3279,
    "trial_index": 1,
    "type": 1,
    "item": 1,
    "stimulus": -41,
    "response": 0,
    "correct": 1,
    "rt_fast": 0,
    "rt": 31349,
    "score": 2,
    "points_awarded": 49,
    "timestamp": "2025-01-27T15:38:56.549Z"
  },
  {
    "subject_id": 3334,
    "trial_index": 4,
    "type": 1,
    "item": 1,
    "stimulus": -41,
    "response": 0,
    "correct": 1,
    "rt_fast": 0,
    "rt": 29782,
    "score": 2,
    "points_awarded": 49,
    "timestamp": "2025-01-13T15:38:56.549Z"
  },
  {
    "subject_id": 3505,
    "trial_index": 1,
    "type": 1,
    "item": 1,
    "stimulus": -41,
    "response": 0,
    "correct": 1,
    "rt_fast": 0,
    "rt": 56732,
    "score": 2,
    "points_awarded": 49,
    "timestamp": "2025-01-27T15:38:56.549Z"
  },
  {
    "subject_id": 1878,
    "trial_index": 1,
    "type": 1,
    "item": 1,
    "stimulus": -41,
    "response": 0,
    "correct": 1,
    "rt_fast": 0,
    "rt": 28528,
    "score": 2,
    "points_awarded": 49,
    "timestamp": "2025-02-10T15:38:56.549Z"
  },
  {
    "subject_id": 3287,
    "trial_index": 3,
    "type": 1,
    "item": 1,
    "stimulus": -41,
    "response": 0,
    "correct": 1,
    "rt_fast": 0,
    "rt": 35988,
    "score": 2,
    "points_awarded": 49,
    "timestamp": "2025-01-27T15:38:56.549Z"
  },
  {
    "subject_id": 3653,
    "trial_index": 5,
    "type": 1,
    "item": 1,
    "stimulus": -41,
    "response": 0,
    "correct": 1,
    "rt_fast": 0,
    "rt": 46593,
    "score": 2,
    "points_awarded": 49,
    "timestamp": "2025-01-20T15:38:56.549Z"
  },
  {
    "subject_id": 3274,
    "trial_index": 2,
    "type": 1,
    "item": 1,
    "stimulus": -41,
    "response": 0,
    "correct": 1,
    "rt_fast": 0,
    "rt": 49468,
    "score": 2,
    "points_awarded": 49,
    "timestamp": "2025-01-27T15:38:56.549Z"
  },
  {
    "subject_id": 3649,
    "trial_index": 8,
    "type": 1,
    "item": 1,
    "stimulus": -41,
    "response": 0,
    "correct": 1,
    "rt_fast": 0,
    "rt": 33644,
    "score": 2,
    "points_awarded": 49,
    "timestamp": "2025-01-20T15:38:56.549Z"
  },
  {
    "subject_id": 3661,
    "trial_index": 6,
    "type": 1,
    "item": 1,
    "stimulus": -41,
    "response": 0,
    "correct": 1,
    "rt_fast": 0,
    "rt": 46259,
    "score": 2,
    "points_awarded": 49,
    "timestamp": "2025-01-20T15:38:56.549Z"
  },
  {
    "subject_id": 3499,
    "trial_index": 7,
    "type": 1,
    "item": 1,
    "stimulus": -41,
    "response": 0,
    "correct": 1,
    "rt_fast": 0,
    "rt": 43266,
    "score": 2,
    "points_awarded": 49,
    "timestamp": "2025-01-27T15:38:56.549Z"
  },
  {
    "subject_id": 3648,
    "trial_index": 1,
    "type": 1,
    "item": 1,
    "stimulus": -41,
    "response": 0,
    "correct": 1,
    "rt_fast": 0,
    "rt": 88886,
    "score": 2,
    "points_awarded": 49,
    "timestamp": "2025-01-20T15:38:56.549Z"
  },
  {
    "subject_id": 1915,
    "trial_index": 10,
    "type": 1,
    "item": 1,
    "stimulus": -41,
    "response": 0,
    "correct": 1,
    "rt_fast": 0,
    "rt": 33529,
    "score": 2,
    "points_awarded": 49,
    "timestamp": "2025-02-17T15:38:56.549Z"
  },
  {
    "subject_id": 4000,
    "trial_index": 8,
    "type": 1,
    "item": 1,
    "stimulus": -41,
    "response": 0,
    "correct": 1,
    "rt_fast": 0,
    "rt": 9909,
    "score": 2,
    "points_awarded": 49,
    "timestamp": "2025-01-13T15:38:56.549Z"
  },
  {
    "subject_id": 2262,
    "trial_index": 3,
    "type": 1,
    "item": 1,
    "stimulus": -41,
    "response": 0,
    "correct": 1,
    "rt_fast": 0,
    "rt": 31913,
    "score": 2,
    "points_awarded": 49,
    "timestamp": "2025-01-27T15:38:56.549Z"
  },
  {
    "subject_id": 3713,
    "trial_index": 6,
    "type": 1,
    "item": 1,
    "stimulus": -41,
    "response": 0,
    "correct": 1,
    "rt_fast": 0,
    "rt": 17673,
    "score": 2,
    "points_awarded": 49,
    "timestamp": "2025-01-13T15:38:56.549Z"
  },
  {
    "subject_id": 2261,
    "trial_index": 3,
    "type": 1,
    "item": 1,
    "stimulus": -41,
    "response": 0,
    "correct": 1,
    "rt_fast": 0,
    "rt": 59041,
    "score": 2,
    "points_awarded": 49,
    "timestamp": "2025-01-27T15:38:56.549Z"
  },
  {
    "subject_id": 3609,
    "trial_index": 6,
    "type": 1,
    "item": 1,
    "stimulus": -41,
    "response": 0,
    "correct": 1,
    "rt_fast": 0,
    "rt": 45498,
    "score": 2,
    "points_awarded": 49,
    "timestamp": "2025-01-27T15:38:56.549Z"
  },
  {
    "subject_id": 1947,
    "trial_index": 7,
    "type": 1,
    "item": 1,
    "stimulus": -41,
    "response": 0,
    "correct": 1,
    "rt_fast": 0,
    "rt": 65256,
    "score": 2,
    "points_awarded": 49,
    "timestamp": "2025-02-17T15:38:56.549Z"
  },
  {
    "subject_id": 3513,
    "trial_index": 6,
    "type": 1,
    "item": 1,
    "stimulus": -41,
    "response": 0,
    "correct": 1,
    "rt_fast": 0,
    "rt": 28547,
    "score": 2,
    "points_awarded": 49,
    "timestamp": "2025-01-27T15:38:56.549Z"
  },
  {
    "subject_id": 3292,
    "trial_index": 2,
    "type": 1,
    "item": 1,
    "stimulus": -41,
    "response": 0,
    "correct": 1,
    "rt_fast": 0,
    "rt": 97549,
    "score": 2,
    "points_awarded": 49,
    "timestamp": "2025-01-27T15:38:56.549Z"
  },
  {
    "subject_id": 2858,
    "trial_index": 10,
    "type": 1,
    "item": 1,
    "stimulus": -41,
    "response": 0,
    "correct": 1,
    "rt_fast": 0,
    "rt": 24898,
    "score": 2,
    "points_awarded": 49,
    "timestamp": "2025-01-20T15:38:56.549Z"
  },
  {
    "subject_id": 3921,
    "trial_index": 4,
    "type": 1,
    "item": 1,
    "stimulus": -43,
    "response": 1,
    "correct": 1,
    "rt_fast": 0,
    "rt": 58242,
    "score": 0,
    "points_awarded": 0,
    "timestamp": "2025-01-20T15:38:56.549Z"
  },
  {
    "subject_id": 1921,
    "trial_index": 1,
    "type": 1,
    "item": 1,
    "stimulus": -41,
    "response": 0,
    "correct": 1,
    "rt_fast": 0,
    "rt": 28051,
    "score": 2,
    "points_awarded": 49,
    "timestamp": "2025-02-17T15:38:56.549Z"
  },
  {
    "subject_id": 3323,
    "trial_index": 4,
    "type": 1,
    "item": 1,
    "stimulus": -41,
    "response": 0,
    "correct": 1,
    "rt_fast": 0,
    "rt": 52945,
    "score": 2,
    "points_awarded": 49,
    "timestamp": "2025-01-13T15:38:56.549Z"
  },
  {
    "subject_id": 3619,
    "trial_index": 1,
    "type": 1,
    "item": 1,
    "stimulus": -41,
    "response": 0,
    "correct": 1,
    "rt_fast": 0,
    "rt": 78077,
    "score": 2,
    "points_awarded": 49,
    "timestamp": "2025-02-10T15:38:56.549Z"
  },
  {
    "subject_id": 2847,
    "trial_index": 5,
    "type": 1,
    "item": 1,
    "stimulus": -41,
    "response": 0,
    "correct": 1,
    "rt_fast": 0,
    "rt": 34134,
    "score": 2,
    "points_awarded": 49,
    "timestamp": "2025-01-20T15:38:56.549Z"
  },
  {
    "subject_id": 3655,
    "trial_index": 7,
    "type": 1,
    "item": 1,
    "stimulus": -41,
    "response": 0,
    "correct": 1,
    "rt_fast": 0,
    "rt": 58692,
    "score": 2,
    "points_awarded": 49,
    "timestamp": "2025-01-20T15:38:56.549Z"
  },
  {
    "subject_id": 2265,
    "trial_index": 7,
    "type": 1,
    "item": 1,
    "stimulus": -41,
    "response": 0,
    "correct": 1,
    "rt_fast": 0,
    "rt": 33784,
    "score": 2,
    "points_awarded": 49,
    "timestamp": "2025-01-27T15:38:56.549Z"
  },
  {
    "subject_id": 3892,
    "trial_index": 3,
    "type": 1,
    "item": 1,
    "stimulus": -41,
    "response": 0,
    "correct": 1,
    "rt_fast": 0,
    "rt": 26435,
    "score": 2,
    "points_awarded": 49,
    "timestamp": "2025-01-13T15:38:56.549Z"
  },
  {
    "subject_id": 1943,
    "trial_index": 1,
    "type": 1,
    "item": 1,
    "stimulus": -41,
    "response": 0,
    "correct": 1,
    "rt_fast": 0,
    "rt": 29185,
    "score": 2,
    "points_awarded": 49,
    "timestamp": "2025-02-17T15:38:56.549Z"
  },
  {
    "subject_id": 3276,
    "trial_index": 4,
    "type": 1,
    "item": 1,
    "stimulus": -41,
    "response": 0,
    "correct": 1,
    "rt_fast": 0,
    "rt": 25904,
    "score": 2,
    "points_awarded": 49,
    "timestamp": "2025-01-27T15:38:56.549Z"
  },
  {
    "subject_id": 3844,
    "trial_index": 1,
    "type": 1,
    "item": 1,
    "stimulus": -41,
    "response": 0,
    "correct": 1,
    "rt_fast": 0,
    "rt": 34553,
    "score": 2,
    "points_awarded": 49,
    "timestamp": "2025-01-13T15:38:56.549Z"
  },
  {
    "subject_id": 1808,
    "trial_index": 7,
    "type": 1,
    "item": 1,
    "stimulus": -41,
    "response": 0,
    "correct": 1,
    "rt_fast": 0,
    "rt": 41190,
    "score": 2,
    "points_awarded": 49,
    "timestamp": "2025-01-20T15:38:56.549Z"
  },
  {
    "subject_id": 1953,
    "trial_index": 2,
    "type": 1,
    "item": 1,
    "stimulus": -41,
    "response": 0,
    "correct": 1,
    "rt_fast": 0,
    "rt": 61606,
    "score": 2,
    "points_awarded": 49,
    "timestamp": "2025-02-17T15:38:56.549Z"
  },
  {
    "subject_id": 3676,
    "trial_index": 7,
    "type": 1,
    "item": 1,
    "stimulus": -41,
    "response": 0,
    "correct": 1,
    "rt_fast": 0,
    "rt": 18216,
    "score": 2,
    "points_awarded": 49,
    "timestamp": "2025-02-17T15:38:56.549Z"
  },
  {
    "subject_id": 1866,
    "trial_index": 10,
    "type": 1,
    "item": 1,
    "stimulus": -41,
    "response": 0,
    "correct": 1,
    "rt_fast": 0,
    "rt": 18442,
    "score": 2,
    "points_awarded": 49,
    "timestamp": "2025-02-10T15:38:56.549Z"
  },
  {
    "subject_id": 3658,
    "trial_index": 5,
    "type": 1,
    "item": 1,
    "stimulus": -41,
    "response": 0,
    "correct": 1,
    "rt_fast": 0,
    "rt": 55027,
    "score": 2,
    "points_awarded": 49,
    "timestamp": "2025-01-20T15:38:56.549Z"
  },
  {
    "subject_id": 1936,
    "trial_index": 3,
    "type": 1,
    "item": 1,
    "stimulus": -41,
    "response": 0,
    "correct": 1,
    "rt_fast": 0,
    "rt": 34633,
    "score": 2,
    "points_awarded": 49,
    "timestamp": "2025-02-17T15:38:56.549Z"
  },
  {
    "subject_id": 1869,
    "trial_index": 11,
    "type": 1,
    "item": 1,
    "stimulus": -41,
    "response": 0,
    "correct": 1,
    "rt_fast": 0,
    "rt": 40949,
    "score": 2,
    "points_awarded": 49,
    "timestamp": "2025-02-10T15:38:56.549Z"
  },
  {
    "subject_id": 1876,
    "trial_index": 5,
    "type": 1,
    "item": 1,
    "stimulus": -41,
    "response": 0,
    "correct": 1,
    "rt_fast": 0,
    "rt": 49947,
    "score": 2,
    "points_awarded": 49,
    "timestamp": "2025-02-10T15:38:56.549Z"
  },
  {
    "subject_id": 3930,
    "trial_index": 13,
    "type": 1,
    "item": 1,
    "stimulus": -41,
    "response": 0,
    "correct": 1,
    "rt_fast": 0,
    "rt": 17390,
    "score": 2,
    "points_awarded": 49,
    "timestamp": "2025-01-20T15:38:56.549Z"
  },
  {
    "subject_id": 2855,
    "trial_index": 2,
    "type": 1,
    "item": 1,
    "stimulus": -43,
    "response": 3,
    "correct": 1,
    "rt_fast": 0,
    "rt": 42857,
    "score": 0,
    "points_awarded": 0,
    "timestamp": "2025-01-20T15:38:56.549Z"
  },
  {
    "subject_id": 3220,
    "trial_index": 1,
    "type": 1,
    "item": 1,
    "stimulus": -41,
    "response": 0,
    "correct": 1,
    "rt_fast": 0,
    "rt": 34212,
    "score": 2,
    "points_awarded": 49,
    "timestamp": "2025-01-13T15:38:56.549Z"
  },
  {
    "subject_id": 1938,
    "trial_index": 5,
    "type": 1,
    "item": 1,
    "stimulus": -43,
    "response": 3,
    "correct": 1,
    "rt_fast": 0,
    "rt": 42600,
    "score": 0,
    "points_awarded": 0,
    "timestamp": "2025-02-17T15:38:56.549Z"
  },
  {
    "subject_id": 3905,
    "trial_index": 5,
    "type": 1,
    "item": 1,
    "stimulus": -41,
    "response": 0,
    "correct": 1,
    "rt_fast": 0,
    "rt": 42456,
    "score": 2,
    "points_awarded": 49,
    "timestamp": "2025-01-13T15:38:56.549Z"
  },
  {
    "subject_id": 3512,
    "trial_index": 1,
    "type": 1,
    "item": 1,
    "stimulus": -41,
    "response": 0,
    "correct": 1,
    "rt_fast": 0,
    "rt": 41144,
    "score": 2,
    "points_awarded": 49,
    "timestamp": "2025-01-27T15:38:56.549Z"
  },
  {
    "subject_id": 3226,
    "trial_index": 6,
    "type": 1,
    "item": 1,
    "stimulus": -41,
    "response": 0,
    "correct": 1,
    "rt_fast": 0,
    "rt": 44768,
    "score": 2,
    "points_awarded": 49,
    "timestamp": "2025-01-13T15:38:56.549Z"
  },
  {
    "subject_id": 3660,
    "trial_index": 13,
    "type": 1,
    "item": 1,
    "stimulus": -41,
    "response": 0,
    "correct": 1,
    "rt_fast": 0,
    "rt": 27331,
    "score": 2,
    "points_awarded": 49,
    "timestamp": "2025-01-20T15:38:56.549Z"
  },
  {
    "subject_id": 1926,
    "trial_index": 2,
    "type": 1,
    "item": 1,
    "stimulus": -41,
    "response": 0,
    "correct": 1,
    "rt_fast": 0,
    "rt": 35140,
    "score": 2,
    "points_awarded": 49,
    "timestamp": "2025-02-17T15:38:56.549Z"
  },
  {
    "subject_id": 3335,
    "trial_index": 18,
    "type": 1,
    "item": 1,
    "stimulus": -41,
    "response": 0,
    "correct": 1,
    "rt_fast": 0,
    "rt": 12055,
    "score": 2,
    "points_awarded": 49,
    "timestamp": "2025-01-13T15:38:56.549Z"
  },
  {
    "subject_id": 3288,
    "trial_index": 5,
    "type": 1,
    "item": 1,
    "stimulus": -41,
    "response": 0,
    "correct": 1,
    "rt_fast": 0,
    "rt": 39923,
    "score": 2,
    "points_awarded": 49,
    "timestamp": "2025-01-27T15:38:56.549Z"
  },
  {
    "subject_id": 3674,
    "trial_index": 10,
    "type": 1,
    "item": 1,
    "stimulus": -41,
    "response": 0,
    "correct": 1,
    "rt_fast": 0,
    "rt": 45141,
    "score": 2,
    "points_awarded": 49,
    "timestamp": "2025-02-17T15:38:56.549Z"
  },
  {
    "subject_id": 1918,
    "trial_index": 12,
    "type": 1,
    "item": 1,
    "stimulus": -41,
    "response": 0,
    "correct": 1,
    "rt_fast": 0,
    "rt": 15792,
    "score": 2,
    "points_awarded": 49,
    "timestamp": "2025-02-17T15:38:56.549Z"
  },
  {
    "subject_id": 3988,
    "trial_index": 4,
    "type": 1,
    "item": 1,
    "stimulus": -41,
    "response": 0,
    "correct": 1,
    "rt_fast": 0,
    "rt": 34867,
    "score": 2,
    "points_awarded": 49,
    "timestamp": "2025-01-13T15:38:56.549Z"
  },
  {
    "subject_id": 3506,
    "trial_index": 7,
    "type": 1,
    "item": 1,
    "stimulus": -43,
    "response": 3,
    "correct": 1,
    "rt_fast": 0,
    "rt": 36502,
    "score": 0,
    "points_awarded": 0,
    "timestamp": "2025-01-27T15:38:56.549Z"
  },
  {
    "subject_id": 3838,
    "trial_index": 3,
    "type": 1,
    "item": 1,
    "stimulus": -41,
    "response": 0,
    "correct": 1,
    "rt_fast": 0,
    "rt": 27523,
    "score": 2,
    "points_awarded": 49,
    "timestamp": "2025-01-13T15:38:56.549Z"
  },
  {
    "subject_id": 3659,
    "trial_index": 6,
    "type": 1,
    "item": 1,
    "stimulus": -41,
    "response": 0,
    "correct": 1,
    "rt_fast": 0,
    "rt": 57524,
    "score": 2,
    "points_awarded": 49,
    "timestamp": "2025-01-20T15:38:56.549Z"
  },
  {
    "subject_id": 2081,
    "trial_index": 6,
    "type": 1,
    "item": 1,
    "stimulus": -41,
    "response": 0,
    "correct": 1,
    "rt_fast": 0,
    "rt": 41351,
    "score": 2,
    "points_awarded": 49,
    "timestamp": "2025-01-27T15:38:56.549Z"
  },
  {
    "subject_id": 3221,
    "trial_index": 7,
    "type": 1,
    "item": 1,
    "stimulus": -41,
    "response": 0,
    "correct": 1,
    "rt_fast": 0,
    "rt": 24667,
    "score": 2,
    "points_awarded": 49,
    "timestamp": "2025-01-13T15:38:56.549Z"
  },
  {
    "subject_id": 3688,
    "trial_index": 6,
    "type": 1,
    "item": 1,
    "stimulus": -41,
    "response": 0,
    "correct": 1,
    "rt_fast": 0,
    "rt": 36895,
    "score": 2,
    "points_awarded": 49,
    "timestamp": "2025-02-17T15:38:56.549Z"
  },
  {
    "subject_id": 2980,
    "trial_index": 16,
    "type": 1,
    "item": 1,
    "stimulus": -41,
    "response": 0,
    "correct": 1,
    "rt_fast": 0,
    "rt": 28327,
    "score": 2,
    "points_awarded": 49,
    "timestamp": "2025-01-13T15:38:56.549Z"
  },
  {
    "subject_id": 3664,
    "trial_index": 6,
    "type": 1,
    "item": 1,
    "stimulus": -41,
    "response": 0,
    "correct": 1,
    "rt_fast": 0,
    "rt": 35495,
    "score": 2,
    "points_awarded": 49,
    "timestamp": "2025-01-20T15:38:56.549Z"
  },
  {
    "subject_id": 1925,
    "trial_index": 3,
    "type": 1,
    "item": 1,
    "stimulus": -41,
    "response": 0,
    "correct": 1,
    "rt_fast": 0,
    "rt": 23811,
    "score": 2,
    "points_awarded": 49,
    "timestamp": "2025-02-17T15:38:56.549Z"
  },
  {
    "subject_id": 3275,
    "trial_index": 9,
    "type": 1,
    "item": 1,
    "stimulus": -41,
    "response": 0,
    "correct": 1,
    "rt_fast": 0,
    "rt": 40517,
    "score": 2,
    "points_awarded": 49,
    "timestamp": "2025-01-27T15:38:56.549Z"
  },
  {
    "subject_id": 2074,
    "trial_index": 3,
    "type": 1,
    "item": 1,
    "stimulus": -41,
    "response": 0,
    "correct": 1,
    "rt_fast": 0,
    "rt": 34338,
    "score": 2,
    "points_awarded": 49,
    "timestamp": "2025-01-27T15:38:56.549Z"
  },
  {
    "subject_id": 1928,
    "trial_index": 6,
    "type": 1,
    "item": 1,
    "stimulus": -41,
    "response": 0,
    "correct": 1,
    "rt_fast": 0,
    "rt": 11975,
    "score": 2,
    "points_awarded": 49,
    "timestamp": "2025-02-17T15:38:56.549Z"
  },
  {
    "subject_id": 2263,
    "trial_index": 12,
    "type": 1,
    "item": 1,
    "stimulus": -41,
    "response": 0,
    "correct": 1,
    "rt_fast": 0,
    "rt": 21528,
    "score": 2,
    "points_awarded": 49,
    "timestamp": "2025-01-27T15:38:56.549Z"
  },
  {
    "subject_id": 3564,
    "trial_index": 2,
    "type": 1,
    "item": 10,
    "stimulus": -41,
    "response": 1,
    "correct": 1,
    "rt_fast": 0,
    "rt": 145557,
    "score": 2,
    "points_awarded": 52,
    "timestamp": "2025-03-03T15:38:56.549Z"
  },
  {
    "subject_id": 3737,
    "trial_index": 5,
    "type": 1,
    "item": 10,
    "stimulus": -41,
    "response": 1,
    "correct": 1,
    "rt_fast": 0,
    "rt": 76354,
    "score": 2,
    "points_awarded": 52,
    "timestamp": "2025-01-20T15:38:56.549Z"
  },
  {
    "subject_id": 3656,
    "trial_index": 9,
    "type": 1,
    "item": 10,
    "stimulus": -41,
    "response": 1,
    "correct": 1,
    "rt_fast": 0,
    "rt": 71291,
    "score": 2,
    "points_awarded": 52,
    "timestamp": "2025-02-17T15:38:56.549Z"
  },
  {
    "subject_id": 3968,
    "trial_index": 10,
    "type": 1,
    "item": 10,
    "stimulus": -41,
    "response": 1,
    "correct": 1,
    "rt_fast": 0,
    "rt": 49177,
    "score": 2,
    "points_awarded": 52,
    "timestamp": "2025-05-05T15:38:56.549Z"
  },
  {
    "subject_id": 3799,
    "trial_index": 6,
    "type": 1,
    "item": 10,
    "stimulus": -41,
    "response": 1,
    "correct": 1,
    "rt_fast": 0,
    "rt": 66056,
    "score": 2,
    "points_awarded": 52,
    "timestamp": "2025-03-31T15:38:56.549Z"
  },
  {
    "subject_id": 3702,
    "trial_index": 7,
    "type": 1,
    "item": 10,
    "stimulus": -41,
    "response": 1,
    "correct": 1,
    "rt_fast": 0,
    "rt": 33348,
    "score": 2,
    "points_awarded": 52,
    "timestamp": "2025-01-13T15:38:56.549Z"
  },
  {
    "subject_id": 3088,
    "trial_index": 12,
    "type": 1,
    "item": 10,
    "stimulus": -41,
    "response": 1,
    "correct": 1,
    "rt_fast": 0,
    "rt": 48577,
    "score": 2,
    "points_awarded": 52,
    "timestamp": "2025-03-24T15:38:56.549Z"
  },
  {
    "subject_id": 2263,
    "trial_index": 10,
    "type": 1,
    "item": 10,
    "stimulus": -41,
    "response": 1,
    "correct": 1,
    "rt_fast": 0,
    "rt": 43472,
    "score": 2,
    "points_awarded": 52,
    "timestamp": "2025-01-27T15:38:56.549Z"
  },
  {
    "subject_id": 4269,
    "trial_index": 15,
    "type": 1,
    "item": 10,
    "stimulus": -41,
    "response": 1,
    "correct": 1,
    "rt_fast": 0,
    "rt": 74062,
    "score": 2,
    "points_awarded": 52,
    "timestamp": "2025-05-05T15:38:56.549Z"
  },
  {
    "subject_id": 2267,
    "trial_index": 4,
    "type": 1,
    "item": 10,
    "stimulus": -43,
    "response": 3,
    "correct": 1,
    "rt_fast": 0,
    "rt": 118888,
    "score": 0,
    "points_awarded": 0,
    "timestamp": "2025-01-27T15:38:56.549Z"
  },
  {
    "subject_id": 2077,
    "trial_index": 9,
    "type": 1,
    "item": 10,
    "stimulus": -41,
    "response": 1,
    "correct": 1,
    "rt_fast": 0,
    "rt": 48712,
    "score": 2,
    "points_awarded": 52,
    "timestamp": "2025-01-27T15:38:56.549Z"
  },
  {
    "subject_id": 3795,
    "trial_index": 7,
    "type": 1,
    "item": 10,
    "stimulus": -43,
    "response": 3,
    "correct": 1,
    "rt_fast": 0,
    "rt": 139075,
    "score": 0,
    "points_awarded": 0,
    "timestamp": "2025-03-17T15:38:56.549Z"
  },
  {
    "subject_id": 3079,
    "trial_index": 7,
    "type": 1,
    "item": 10,
    "stimulus": -41,
    "response": 1,
    "correct": 1,
    "rt_fast": 0,
    "rt": 42992,
    "score": 2,
    "points_awarded": 52,
    "timestamp": "2025-03-24T15:38:56.549Z"
  },
  {
    "subject_id": 3368,
    "trial_index": 9,
    "type": 1,
    "item": 10,
    "stimulus": -43,
    "response": 3,
    "correct": 1,
    "rt_fast": 0,
    "rt": 33488,
    "score": 0,
    "points_awarded": 0,
    "timestamp": "2025-03-31T15:38:56.549Z"
  },
  {
    "subject_id": 1865,
    "trial_index": 6,
    "type": 1,
    "item": 10,
    "stimulus": -41,
    "response": 1,
    "correct": 1,
    "rt_fast": 0,
    "rt": 77620,
    "score": 2,
    "points_awarded": 52,
    "timestamp": "2025-02-10T15:38:56.549Z"
  },
  {
    "subject_id": 3210,
    "trial_index": 3,
    "type": 1,
    "item": 10,
    "stimulus": -41,
    "response": 1,
    "correct": 1,
    "rt_fast": 0,
    "rt": 18056,
    "score": 2,
    "points_awarded": 52,
    "timestamp": "2025-01-13T15:38:56.549Z"
  },
  {
    "subject_id": 3290,
    "trial_index": 11,
    "type": 1,
    "item": 10,
    "stimulus": -41,
    "response": 1,
    "correct": 1,
    "rt_fast": 0,
    "rt": 11743,
    "score": 2,
    "points_awarded": 52,
    "timestamp": "2025-03-10T15:38:56.549Z"
  },
  {
    "subject_id": 2245,
    "trial_index": 7,
    "type": 1,
    "item": 10,
    "stimulus": -41,
    "response": 1,
    "correct": 1,
    "rt_fast": 0,
    "rt": 59659,
    "score": 2,
    "points_awarded": 52,
    "timestamp": "2025-01-20T15:38:56.549Z"
  },
  {
    "subject_id": 3960,
    "trial_index": 3,
    "type": 1,
    "item": 10,
    "stimulus": -41,
    "response": 1,
    "correct": 1,
    "rt_fast": 0,
    "rt": 80623,
    "score": 2,
    "points_awarded": 52,
    "timestamp": "2025-05-05T15:38:56.549Z"
  },
  {
    "subject_id": 3613,
    "trial_index": 1,
    "type": 1,
    "item": 10,
    "stimulus": -41,
    "response": 1,
    "correct": 1,
    "rt_fast": 0,
    "rt": 6304,
    "score": 2,
    "points_awarded": 52,
    "timestamp": "2025-05-05T15:38:56.549Z"
  },
  {
    "subject_id": 4351,
    "trial_index": 5,
    "type": 1,
    "item": 10,
    "stimulus": -41,
    "response": 1,
    "correct": 1,
    "rt_fast": 0,
    "rt": 103587,
    "score": 2,
    "points_awarded": 52,
    "timestamp": "2025-03-31T15:38:56.549Z"
  },
  {
    "subject_id": 3668,
    "trial_index": 7,
    "type": 1,
    "item": 10,
    "stimulus": -41,
    "response": 1,
    "correct": 1,
    "rt_fast": 0,
    "rt": 67442,
    "score": 2,
    "points_awarded": 52,
    "timestamp": "2025-02-17T15:38:56.549Z"
  },
  {
    "subject_id": 3585,
    "trial_index": 14,
    "type": 1,
    "item": 10,
    "stimulus": -41,
    "response": 1,
    "correct": 1,
    "rt_fast": 0,
    "rt": 38384,
    "score": 2,
    "points_awarded": 52,
    "timestamp": "2025-05-05T15:38:56.549Z"
  },
  {
    "subject_id": 3336,
    "trial_index": 4,
    "type": 1,
    "item": 10,
    "stimulus": -41,
    "response": 1,
    "correct": 1,
    "rt_fast": 0,
    "rt": 66466,
    "score": 2,
    "points_awarded": 52,
    "timestamp": "2025-01-13T15:38:56.549Z"
  },
  {
    "subject_id": 3609,
    "trial_index": 9,
    "type": 1,
    "item": 10,
    "stimulus": -41,
    "response": 1,
    "correct": 1,
    "rt_fast": 0,
    "rt": 111234,
    "score": 2,
    "points_awarded": 52,
    "timestamp": "2025-01-27T15:38:56.549Z"
  },
  {
    "subject_id": 4271,
    "trial_index": 8,
    "type": 1,
    "item": 10,
    "stimulus": -41,
    "response": 1,
    "correct": 1,
    "rt_fast": 0,
    "rt": 37843,
    "score": 2,
    "points_awarded": 52,
    "timestamp": "2025-05-05T15:38:56.549Z"
  },
  {
    "subject_id": 3613,
    "trial_index": 6,
    "type": 1,
    "item": 10,
    "stimulus": -41,
    "response": 1,
    "correct": 1,
    "rt_fast": 0,
    "rt": 57716,
    "score": 2,
    "points_awarded": 52,
    "timestamp": "2025-03-24T15:38:56.549Z"
  },
  {
    "subject_id": 3582,
    "trial_index": 8,
    "type": 1,
    "item": 10,
    "stimulus": -43,
    "response": 2,
    "correct": 1,
    "rt_fast": 0,
    "rt": 36470,
    "score": 0,
    "points_awarded": 0,
    "timestamp": "2025-03-03T15:38:56.549Z"
  },
  {
    "subject_id": 1868,
    "trial_index": 3,
    "type": 1,
    "item": 10,
    "stimulus": -41,
    "response": 1,
    "correct": 1,
    "rt_fast": 0,
    "rt": 16331,
    "score": 2,
    "points_awarded": 52,
    "timestamp": "2025-04-14T15:38:56.549Z"
  },
  {
    "subject_id": 3660,
    "trial_index": 7,
    "type": 1,
    "item": 10,
    "stimulus": -41,
    "response": 1,
    "correct": 1,
    "rt_fast": 0,
    "rt": 61577,
    "score": 2,
    "points_awarded": 52,
    "timestamp": "2025-02-17T15:38:56.549Z"
  },
  {
    "subject_id": 3410,
    "trial_index": 5,
    "type": 1,
    "item": 10,
    "stimulus": -41,
    "response": 1,
    "correct": 1,
    "rt_fast": 0,
    "rt": 76141,
    "score": 2,
    "points_awarded": 52,
    "timestamp": "2025-05-05T15:38:56.549Z"
  },
  {
    "subject_id": 2976,
    "trial_index": 4,
    "type": 1,
    "item": 10,
    "stimulus": -43,
    "response": 2,
    "correct": 1,
    "rt_fast": 0,
    "rt": 59771,
    "score": 0,
    "points_awarded": 0,
    "timestamp": "2025-04-07T15:38:56.549Z"
  },
  {
    "subject_id": 4272,
    "trial_index": 22,
    "type": 1,
    "item": 10,
    "stimulus": -41,
    "response": 1,
    "correct": 1,
    "rt_fast": 0,
    "rt": 19251,
    "score": 2,
    "points_awarded": 52,
    "timestamp": "2025-05-05T15:38:56.549Z"
  },
  {
    "subject_id": 3688,
    "trial_index": 3,
    "type": 1,
    "item": 10,
    "stimulus": -41,
    "response": 1,
    "correct": 1,
    "rt_fast": 0,
    "rt": 36972,
    "score": 2,
    "points_awarded": 52,
    "timestamp": "2025-03-17T15:38:56.549Z"
  },
  {
    "subject_id": 3832,
    "trial_index": 1,
    "type": 1,
    "item": 10,
    "stimulus": -41,
    "response": 1,
    "correct": 1,
    "rt_fast": 0,
    "rt": 22302,
    "score": 2,
    "points_awarded": 52,
    "timestamp": "2025-03-03T15:38:56.549Z"
  },
  {
    "subject_id": 4351,
    "trial_index": 4,
    "type": 1,
    "item": 10,
    "stimulus": -41,
    "response": 1,
    "correct": 1,
    "rt_fast": 0,
    "rt": 117442,
    "score": 2,
    "points_awarded": 52,
    "timestamp": "2025-04-28T15:38:56.549Z"
  },
  {
    "subject_id": 4151,
    "trial_index": 8,
    "type": 1,
    "item": 10,
    "stimulus": -41,
    "response": 1,
    "correct": 1,
    "rt_fast": 0,
    "rt": 55382,
    "score": 2,
    "points_awarded": 52,
    "timestamp": "2025-05-05T15:38:56.549Z"
  },
  {
    "subject_id": 1900,
    "trial_index": 7,
    "type": 1,
    "item": 10,
    "stimulus": -41,
    "response": 1,
    "correct": 1,
    "rt_fast": 0,
    "rt": 119933,
    "score": 2,
    "points_awarded": 52,
    "timestamp": "2025-05-05T15:38:56.549Z"
  },
  {
    "subject_id": 3066,
    "trial_index": 5,
    "type": 1,
    "item": 10,
    "stimulus": -41,
    "response": 1,
    "correct": 1,
    "rt_fast": 0,
    "rt": 42615,
    "score": 2,
    "points_awarded": 52,
    "timestamp": "2025-01-20T15:38:56.549Z"
  },
  {
    "subject_id": 2248,
    "trial_index": 7,
    "type": 1,
    "item": 10,
    "stimulus": -41,
    "response": 1,
    "correct": 1,
    "rt_fast": 0,
    "rt": 69279,
    "score": 2,
    "points_awarded": 52,
    "timestamp": "2025-01-20T15:38:56.549Z"
  },
  {
    "subject_id": 3394,
    "trial_index": 9,
    "type": 1,
    "item": 10,
    "stimulus": -41,
    "response": 1,
    "correct": 1,
    "rt_fast": 0,
    "rt": 8980,
    "score": 2,
    "points_awarded": 52,
    "timestamp": "2025-03-17T15:38:56.549Z"
  },
  {
    "subject_id": 2258,
    "trial_index": 10,
    "type": 1,
    "item": 10,
    "stimulus": -41,
    "response": 1,
    "correct": 1,
    "rt_fast": 0,
    "rt": 41948,
    "score": 2,
    "points_awarded": 52,
    "timestamp": "2025-01-20T15:38:56.549Z"
  },
  {
    "subject_id": 4279,
    "trial_index": 12,
    "type": 1,
    "item": 10,
    "stimulus": -41,
    "response": 1,
    "correct": 1,
    "rt_fast": 0,
    "rt": 46633,
    "score": 2,
    "points_awarded": 52,
    "timestamp": "2025-05-05T15:38:56.549Z"
  },
  {
    "subject_id": 3975,
    "trial_index": 8,
    "type": 1,
    "item": 10,
    "stimulus": -41,
    "response": 1,
    "correct": 1,
    "rt_fast": 0,
    "rt": 41629,
    "score": 2,
    "points_awarded": 52,
    "timestamp": "2025-03-03T15:38:56.549Z"
  },
  {
    "subject_id": 3385,
    "trial_index": 9,
    "type": 1,
    "item": 10,
    "stimulus": -41,
    "response": 1,
    "correct": 1,
    "rt_fast": 0,
    "rt": 23165,
    "score": 2,
    "points_awarded": 52,
    "timestamp": "2025-03-31T15:38:56.549Z"
  },
  {
    "subject_id": 4169,
    "trial_index": 5,
    "type": 1,
    "item": 10,
    "stimulus": -41,
    "response": 1,
    "correct": 1,
    "rt_fast": 0,
    "rt": 27787,
    "score": 2,
    "points_awarded": 52,
    "timestamp": "2025-05-05T15:38:56.549Z"
  },
  {
    "subject_id": 3056,
    "trial_index": 1,
    "type": 1,
    "item": 10,
    "stimulus": -41,
    "response": 1,
    "correct": 1,
    "rt_fast": 0,
    "rt": 50290,
    "score": 2,
    "points_awarded": 52,
    "timestamp": "2025-01-20T15:38:56.549Z"
  },
  {
    "subject_id": 3335,
    "trial_index": 19,
    "type": 1,
    "item": 10,
    "stimulus": -41,
    "response": 1,
    "correct": 1,
    "rt_fast": 0,
    "rt": 12213,
    "score": 2,
    "points_awarded": 52,
    "timestamp": "2025-01-13T15:38:56.549Z"
  },
  {
    "subject_id": 3289,
    "trial_index": 9,
    "type": 1,
    "item": 10,
    "stimulus": -41,
    "response": 1,
    "correct": 1,
    "rt_fast": 0,
    "rt": 51891,
    "score": 2,
    "points_awarded": 52,
    "timestamp": "2025-03-10T15:38:56.549Z"
  },
  {
    "subject_id": 4363,
    "trial_index": 3,
    "type": 1,
    "item": 10,
    "stimulus": -41,
    "response": 1,
    "correct": 1,
    "rt_fast": 0,
    "rt": 10372,
    "score": 2,
    "points_awarded": 52,
    "timestamp": "2025-04-07T15:38:56.549Z"
  },
  {
    "subject_id": 1872,
    "trial_index": 5,
    "type": 1,
    "item": 10,
    "stimulus": -41,
    "response": 1,
    "correct": 1,
    "rt_fast": 0,
    "rt": 75974,
    "score": 2,
    "points_awarded": 52,
    "timestamp": "2025-04-14T15:38:56.549Z"
  },
  {
    "subject_id": 1809,
    "trial_index": 1,
    "type": 1,
    "item": 10,
    "stimulus": -41,
    "response": 1,
    "correct": 1,
    "rt_fast": 0,
    "rt": 46260,
    "score": 2,
    "points_awarded": 52,
    "timestamp": "2025-02-24T15:38:56.549Z"
  },
  {
    "subject_id": 3576,
    "trial_index": 7,
    "type": 1,
    "item": 10,
    "stimulus": -41,
    "response": 1,
    "correct": 1,
    "rt_fast": 0,
    "rt": 112899,
    "score": 2,
    "points_awarded": 52,
    "timestamp": "2025-01-20T15:38:56.549Z"
  },
  {
    "subject_id": 4345,
    "trial_index": 20,
    "type": 1,
    "item": 10,
    "stimulus": -41,
    "response": 1,
    "correct": 1,
    "rt_fast": 0,
    "rt": 44582,
    "score": 2,
    "points_awarded": 52,
    "timestamp": "2025-04-07T15:38:56.549Z"
  },
  {
    "subject_id": 3567,
    "trial_index": 4,
    "type": 1,
    "item": 10,
    "stimulus": -41,
    "response": 1,
    "correct": 1,
    "rt_fast": 0,
    "rt": 61859,
    "score": 2,
    "points_awarded": 52,
    "timestamp": "2025-03-03T15:38:56.549Z"
  },
  {
    "subject_id": 2253,
    "trial_index": 17,
    "type": 1,
    "item": 10,
    "stimulus": -41,
    "response": 1,
    "correct": 1,
    "rt_fast": 0,
    "rt": 42437,
    "score": 2,
    "points_awarded": 52,
    "timestamp": "2025-01-20T15:38:56.549Z"
  },
  {
    "subject_id": 1889,
    "trial_index": 3,
    "type": 1,
    "item": 10,
    "stimulus": -43,
    "response": 2,
    "correct": 1,
    "rt_fast": 0,
    "rt": 19789,
    "score": 0,
    "points_awarded": 0,
    "timestamp": "2025-05-05T15:38:56.549Z"
  },
  {
    "subject_id": 1902,
    "trial_index": 5,
    "type": 1,
    "item": 10,
    "stimulus": -41,
    "response": 1,
    "correct": 1,
    "rt_fast": 0,
    "rt": 57377,
    "score": 2,
    "points_awarded": 52,
    "timestamp": "2025-05-05T15:38:56.549Z"
  },
  {
    "subject_id": 3611,
    "trial_index": 2,
    "type": 1,
    "item": 10,
    "stimulus": -41,
    "response": 1,
    "correct": 1,
    "rt_fast": 0,
    "rt": 66517,
    "score": 2,
    "points_awarded": 52,
    "timestamp": "2025-01-27T15:38:56.549Z"
  },
  {
    "subject_id": 3912,
    "trial_index": 8,
    "type": 1,
    "item": 10,
    "stimulus": -41,
    "response": 1,
    "correct": 1,
    "rt_fast": 0,
    "rt": 64594,
    "score": 2,
    "points_awarded": 52,
    "timestamp": "2025-01-13T15:38:56.549Z"
  },
  {
    "subject_id": 4280,
    "trial_index": 13,
    "type": 1,
    "item": 10,
    "stimulus": -41,
    "response": 1,
    "correct": 1,
    "rt_fast": 0,
    "rt": 32281,
    "score": 2,
    "points_awarded": 52,
    "timestamp": "2025-05-05T15:38:56.549Z"
  },
  {
    "subject_id": 1802,
    "trial_index": 7,
    "type": 1,
    "item": 10,
    "stimulus": -41,
    "response": 1,
    "correct": 1,
    "rt_fast": 0,
    "rt": 56861,
    "score": 2,
    "points_awarded": 52,
    "timestamp": "2025-02-24T15:38:56.549Z"
  },
  {
    "subject_id": 3919,
    "trial_index": 1,
    "type": 1,
    "item": 10,
    "stimulus": -41,
    "response": 1,
    "correct": 1,
    "rt_fast": 0,
    "rt": 56759,
    "score": 2,
    "points_awarded": 52,
    "timestamp": "2025-01-20T15:38:56.549Z"
  },
  {
    "subject_id": 4153,
    "trial_index": 10,
    "type": 1,
    "item": 10,
    "stimulus": -41,
    "response": 1,
    "correct": 1,
    "rt_fast": 0,
    "rt": 33380,
    "score": 2,
    "points_awarded": 52,
    "timestamp": "2025-05-05T15:38:56.549Z"
  },
  {
    "subject_id": 4358,
    "trial_index": 11,
    "type": 1,
    "item": 10,
    "stimulus": -41,
    "response": 1,
    "correct": 1,
    "rt_fast": 0,
    "rt": 26771,
    "score": 2,
    "points_awarded": 52,
    "timestamp": "2025-04-28T15:38:56.549Z"
  },
  {
    "subject_id": 3893,
    "trial_index": 3,
    "type": 1,
    "item": 10,
    "stimulus": -41,
    "response": 1,
    "correct": 1,
    "rt_fast": 0,
    "rt": 87616,
    "score": 2,
    "points_awarded": 52,
    "timestamp": "2025-01-13T15:38:56.549Z"
  },
  {
    "subject_id": 3749,
    "trial_index": 9,
    "type": 1,
    "item": 10,
    "stimulus": -41,
    "response": 1,
    "correct": 1,
    "rt_fast": 0,
    "rt": 11869,
    "score": 2,
    "points_awarded": 52,
    "timestamp": "2025-01-20T15:38:56.549Z"
  },
  {
    "subject_id": 2266,
    "trial_index": 1,
    "type": 1,
    "item": 10,
    "stimulus": -41,
    "response": 1,
    "correct": 1,
    "rt_fast": 0,
    "rt": 71942,
    "score": 2,
    "points_awarded": 52,
    "timestamp": "2025-01-27T15:38:56.549Z"
  },
  {
    "subject_id": 3699,
    "trial_index": 12,
    "type": 1,
    "item": 10,
    "stimulus": -41,
    "response": 1,
    "correct": 1,
    "rt_fast": 0,
    "rt": 45474,
    "score": 2,
    "points_awarded": 52,
    "timestamp": "2025-03-03T15:38:56.549Z"
  },
  {
    "subject_id": 2252,
    "trial_index": 8,
    "type": 1,
    "item": 10,
    "stimulus": -41,
    "response": 1,
    "correct": 1,
    "rt_fast": 0,
    "rt": 23576,
    "score": 2,
    "points_awarded": 52,
    "timestamp": "2025-01-20T15:38:56.549Z"
  },
  {
    "subject_id": 3930,
    "trial_index": 17,
    "type": 1,
    "item": 10,
    "stimulus": -41,
    "response": 1,
    "correct": 1,
    "rt_fast": 0,
    "rt": 26920,
    "score": 2,
    "points_awarded": 52,
    "timestamp": "2025-01-20T15:38:56.549Z"
  },
  {
    "subject_id": 3324,
    "trial_index": 8,
    "type": 1,
    "item": 10,
    "stimulus": -41,
    "response": 1,
    "correct": 1,
    "rt_fast": 0,
    "rt": 69597,
    "score": 2,
    "points_awarded": 52,
    "timestamp": "2025-01-13T15:38:56.549Z"
  },
  {
    "subject_id": 4357,
    "trial_index": 3,
    "type": 1,
    "item": 10,
    "stimulus": -41,
    "response": 1,
    "correct": 1,
    "rt_fast": 0,
    "rt": 34685,
    "score": 2,
    "points_awarded": 52,
    "timestamp": "2025-03-31T15:38:56.549Z"
  },
  {
    "subject_id": 3587,
    "trial_index": 14,
    "type": 1,
    "item": 10,
    "stimulus": -41,
    "response": 1,
    "correct": 1,
    "rt_fast": 0,
    "rt": 27710,
    "score": 2,
    "points_awarded": 52,
    "timestamp": "2025-05-05T15:38:56.549Z"
  },
  {
    "subject_id": 3841,
    "trial_index": 4,
    "type": 1,
    "item": 10,
    "stimulus": -41,
    "response": 1,
    "correct": 1,
    "rt_fast": 0,
    "rt": 46034,
    "score": 2,
    "points_awarded": 52,
    "timestamp": "2025-05-05T15:38:56.549Z"
  },
  {
    "subject_id": 4270,
    "trial_index": 1,
    "type": 1,
    "item": 10,
    "stimulus": -41,
    "response": 1,
    "correct": 1,
    "rt_fast": 0,
    "rt": 4596,
    "score": 2,
    "points_awarded": 52,
    "timestamp": "2025-05-05T15:38:56.549Z"
  },
  {
    "subject_id": 3061,
    "trial_index": 5,
    "type": 1,
    "item": 10,
    "stimulus": -41,
    "response": 1,
    "correct": 1,
    "rt_fast": 0,
    "rt": 11909,
    "score": 2,
    "points_awarded": 52,
    "timestamp": "2025-01-20T15:38:56.549Z"
  },
  {
    "subject_id": 3745,
    "trial_index": 10,
    "type": 1,
    "item": 10,
    "stimulus": -41,
    "response": 1,
    "correct": 1,
    "rt_fast": 0,
    "rt": 26616,
    "score": 2,
    "points_awarded": 52,
    "timestamp": "2025-01-20T15:38:56.549Z"
  },
  {
    "subject_id": 2250,
    "trial_index": 10,
    "type": 1,
    "item": 10,
    "stimulus": -41,
    "response": 1,
    "correct": 1,
    "rt_fast": 0,
    "rt": 30886,
    "score": 2,
    "points_awarded": 52,
    "timestamp": "2025-01-20T15:38:56.549Z"
  },
  {
    "subject_id": 2862,
    "trial_index": 10,
    "type": 1,
    "item": 10,
    "stimulus": -41,
    "response": 1,
    "correct": 1,
    "rt_fast": 0,
    "rt": 21190,
    "score": 2,
    "points_awarded": 52,
    "timestamp": "2025-01-20T15:38:56.549Z"
  },
  {
    "subject_id": 3838,
    "trial_index": 7,
    "type": 1,
    "item": 10,
    "stimulus": -41,
    "response": 1,
    "correct": 1,
    "rt_fast": 0,
    "rt": 47664,
    "score": 2,
    "points_awarded": 52,
    "timestamp": "2025-03-03T15:38:56.549Z"
  },
  {
    "subject_id": 1874,
    "trial_index": 1,
    "type": 1,
    "item": 10,
    "stimulus": -41,
    "response": 1,
    "correct": 1,
    "rt_fast": 0,
    "rt": 83694,
    "score": 2,
    "points_awarded": 52,
    "timestamp": "2025-04-14T15:38:56.549Z"
  },
  {
    "subject_id": 4166,
    "trial_index": 8,
    "type": 1,
    "item": 10,
    "stimulus": -41,
    "response": 1,
    "correct": 1,
    "rt_fast": 0,
    "rt": 3745,
    "score": 2,
    "points_awarded": 52,
    "timestamp": "2025-05-05T15:38:56.549Z"
  },
  {
    "subject_id": 3742,
    "trial_index": 2,
    "type": 1,
    "item": 10,
    "stimulus": -41,
    "response": 1,
    "correct": 1,
    "rt_fast": 0,
    "rt": 35865,
    "score": 2,
    "points_awarded": 52,
    "timestamp": "2025-01-20T15:38:56.549Z"
  },
  {
    "subject_id": 3994,
    "trial_index": 6,
    "type": 1,
    "item": 10,
    "stimulus": -41,
    "response": 1,
    "correct": 1,
    "rt_fast": 0,
    "rt": 8570,
    "score": 2,
    "points_awarded": 52,
    "timestamp": "2025-03-03T15:38:56.549Z"
  },
  {
    "subject_id": 3963,
    "trial_index": 5,
    "type": 1,
    "item": 10,
    "stimulus": -41,
    "response": 1,
    "correct": 1,
    "rt_fast": 0,
    "rt": 34809,
    "score": 2,
    "points_awarded": 52,
    "timestamp": "2025-02-24T15:38:56.549Z"
  },
  {
    "subject_id": 3971,
    "trial_index": 10,
    "type": 1,
    "item": 10,
    "stimulus": -41,
    "response": 1,
    "correct": 1,
    "rt_fast": 0,
    "rt": 32983,
    "score": 2,
    "points_awarded": 52,
    "timestamp": "2025-05-05T15:38:56.549Z"
  },
  {
    "subject_id": 2295,
    "trial_index": 11,
    "type": 1,
    "item": 10,
    "stimulus": -41,
    "response": 1,
    "correct": 1,
    "rt_fast": 0,
    "rt": 36691,
    "score": 2,
    "points_awarded": 52,
    "timestamp": "2025-03-31T15:38:56.549Z"
  },
  {
    "subject_id": 3936,
    "trial_index": 6,
    "type": 1,
    "item": 10,
    "stimulus": -41,
    "response": 1,
    "correct": 1,
    "rt_fast": 0,
    "rt": 71564,
    "score": 2,
    "points_awarded": 52,
    "timestamp": "2025-01-13T15:38:56.549Z"
  },
  {
    "subject_id": 2286,
    "trial_index": 1,
    "type": 1,
    "item": 10,
    "stimulus": -41,
    "response": 1,
    "correct": 1,
    "rt_fast": 0,
    "rt": 50388,
    "score": 2,
    "points_awarded": 52,
    "timestamp": "2025-03-31T15:38:56.549Z"
  },
  {
    "subject_id": 3954,
    "trial_index": 5,
    "type": 1,
    "item": 10,
    "stimulus": -43,
    "response": 3,
    "correct": 1,
    "rt_fast": 0,
    "rt": 116371,
    "score": 0,
    "points_awarded": 0,
    "timestamp": "2025-05-05T15:38:56.549Z"
  },
  {
    "subject_id": 2978,
    "trial_index": 21,
    "type": 1,
    "item": 10,
    "stimulus": -41,
    "response": 1,
    "correct": 1,
    "rt_fast": 0,
    "rt": 36653,
    "score": 2,
    "points_awarded": 52,
    "timestamp": "2025-04-07T15:38:56.549Z"
  },
  {
    "subject_id": 3291,
    "trial_index": 3,
    "type": 1,
    "item": 10,
    "stimulus": -41,
    "response": 1,
    "correct": 1,
    "rt_fast": 0,
    "rt": 56593,
    "score": 2,
    "points_awarded": 52,
    "timestamp": "2025-03-10T15:38:56.549Z"
  },
  {
    "subject_id": 4278,
    "trial_index": 7,
    "type": 1,
    "item": 10,
    "stimulus": -41,
    "response": 1,
    "correct": 1,
    "rt_fast": 0,
    "rt": 37944,
    "score": 2,
    "points_awarded": 52,
    "timestamp": "2025-05-05T15:38:56.549Z"
  },
  {
    "subject_id": 3391,
    "trial_index": 6,
    "type": 1,
    "item": 10,
    "stimulus": -41,
    "response": 1,
    "correct": 1,
    "rt_fast": 0,
    "rt": 46930,
    "score": 2,
    "points_awarded": 52,
    "timestamp": "2025-03-24T15:38:56.549Z"
  },
  {
    "subject_id": 3588,
    "trial_index": 1,
    "type": 1,
    "item": 10,
    "stimulus": -41,
    "response": 1,
    "correct": 1,
    "rt_fast": 0,
    "rt": 59023,
    "score": 2,
    "points_awarded": 52,
    "timestamp": "2025-05-05T15:38:56.549Z"
  },
  {
    "subject_id": 3374,
    "trial_index": 1,
    "type": 1,
    "item": 10,
    "stimulus": -41,
    "response": 1,
    "correct": 1,
    "rt_fast": 0,
    "rt": 46974,
    "score": 2,
    "points_awarded": 52,
    "timestamp": "2025-03-31T15:38:56.549Z"
  },
  {
    "subject_id": 3935,
    "trial_index": 15,
    "type": 1,
    "item": 10,
    "stimulus": -41,
    "response": 1,
    "correct": 1,
    "rt_fast": 0,
    "rt": 36055,
    "score": 2,
    "points_awarded": 52,
    "timestamp": "2025-01-13T15:38:56.549Z"
  },
  {
    "subject_id": 2246,
    "trial_index": 3,
    "type": 1,
    "item": 10,
    "stimulus": -41,
    "response": 1,
    "correct": 1,
    "rt_fast": 0,
    "rt": 26331,
    "score": 2,
    "points_awarded": 52,
    "timestamp": "2025-01-20T15:38:56.549Z"
  },
  {
    "subject_id": 2847,
    "trial_index": 6,
    "type": 1,
    "item": 10,
    "stimulus": -43,
    "response": 3,
    "correct": 1,
    "rt_fast": 0,
    "rt": 42567,
    "score": 0,
    "points_awarded": 0,
    "timestamp": "2025-01-20T15:38:56.549Z"
  },
  {
    "subject_id": 3619,
    "trial_index": 3,
    "type": 1,
    "item": 10,
    "stimulus": -41,
    "response": 1,
    "correct": 1,
    "rt_fast": 0,
    "rt": 22834,
    "score": 2,
    "points_awarded": 52,
    "timestamp": "2025-02-10T15:38:56.549Z"
  },
  {
    "subject_id": 1896,
    "trial_index": 11,
    "type": 1,
    "item": 10,
    "stimulus": -41,
    "response": 1,
    "correct": 1,
    "rt_fast": 0,
    "rt": 36583,
    "score": 2,
    "points_awarded": 52,
    "timestamp": "2025-05-05T15:38:56.549Z"
  },
  {
    "subject_id": 3969,
    "trial_index": 2,
    "type": 1,
    "item": 10,
    "stimulus": -41,
    "response": 1,
    "correct": 1,
    "rt_fast": 0,
    "rt": 45372,
    "score": 2,
    "points_awarded": 52,
    "timestamp": "2025-03-03T15:38:56.549Z"
  },
  {
    "subject_id": 2079,
    "trial_index": 1,
    "type": 1,
    "item": 10,
    "stimulus": -41,
    "response": 1,
    "correct": 1,
    "rt_fast": 0,
    "rt": 77060,
    "score": 2,
    "points_awarded": 52,
    "timestamp": "2025-03-10T15:38:56.549Z"
  },
  {
    "subject_id": 1893,
    "trial_index": 12,
    "type": 1,
    "item": 10,
    "stimulus": -41,
    "response": 1,
    "correct": 1,
    "rt_fast": 0,
    "rt": 42532,
    "score": 2,
    "points_awarded": 52,
    "timestamp": "2025-03-17T15:38:56.549Z"
  },
  {
    "subject_id": 3918,
    "trial_index": 2,
    "type": 1,
    "item": 10,
    "stimulus": -41,
    "response": 1,
    "correct": 1,
    "rt_fast": 0,
    "rt": 151408,
    "score": 2,
    "points_awarded": 52,
    "timestamp": "2025-01-20T15:38:56.549Z"
  },
  {
    "subject_id": 3596,
    "trial_index": 8,
    "type": 1,
    "item": 10,
    "stimulus": -41,
    "response": 1,
    "correct": 1,
    "rt_fast": 0,
    "rt": 67004,
    "score": 2,
    "points_awarded": 52,
    "timestamp": "2025-05-05T15:38:56.549Z"
  },
  {
    "subject_id": 3650,
    "trial_index": 5,
    "type": 1,
    "item": 10,
    "stimulus": -41,
    "response": 1,
    "correct": 1,
    "rt_fast": 0,
    "rt": 57708,
    "score": 2,
    "points_awarded": 52,
    "timestamp": "2025-02-17T15:38:56.549Z"
  },
  {
    "subject_id": 3965,
    "trial_index": 9,
    "type": 1,
    "item": 10,
    "stimulus": -41,
    "response": 1,
    "correct": 1,
    "rt_fast": 0,
    "rt": 50001,
    "score": 2,
    "points_awarded": 52,
    "timestamp": "2025-05-05T15:38:56.549Z"
  },
  {
    "subject_id": 2861,
    "trial_index": 12,
    "type": 1,
    "item": 10,
    "stimulus": -41,
    "response": 1,
    "correct": 1,
    "rt_fast": 0,
    "rt": 33416,
    "score": 2,
    "points_awarded": 52,
    "timestamp": "2025-01-20T15:38:56.549Z"
  },
  {
    "subject_id": 3751,
    "trial_index": 1,
    "type": 1,
    "item": 10,
    "stimulus": -43,
    "response": 2,
    "correct": 1,
    "rt_fast": 0,
    "rt": 133653,
    "score": 0,
    "points_awarded": 0,
    "timestamp": "2025-01-20T15:38:56.549Z"
  },
  {
    "subject_id": 3693,
    "trial_index": 3,
    "type": 1,
    "item": 10,
    "stimulus": -41,
    "response": 1,
    "correct": 1,
    "rt_fast": 0,
    "rt": 46477,
    "score": 2,
    "points_awarded": 52,
    "timestamp": "2025-02-17T15:38:56.549Z"
  },
  {
    "subject_id": 2076,
    "trial_index": 4,
    "type": 1,
    "item": 10,
    "stimulus": -41,
    "response": 1,
    "correct": 1,
    "rt_fast": 0,
    "rt": 42477,
    "score": 2,
    "points_awarded": 52,
    "timestamp": "2025-01-27T15:38:56.549Z"
  },
  {
    "subject_id": 3397,
    "trial_index": 8,
    "type": 1,
    "item": 10,
    "stimulus": -41,
    "response": 1,
    "correct": 1,
    "rt_fast": 0,
    "rt": 79211,
    "score": 2,
    "points_awarded": 52,
    "timestamp": "2025-03-24T15:38:56.549Z"
  },
  {
    "subject_id": 1905,
    "trial_index": 13,
    "type": 1,
    "item": 10,
    "stimulus": -41,
    "response": 1,
    "correct": 1,
    "rt_fast": 0,
    "rt": 33351,
    "score": 2,
    "points_awarded": 52,
    "timestamp": "2025-05-05T15:38:56.549Z"
  },
  {
    "subject_id": 2981,
    "trial_index": 12,
    "type": 1,
    "item": 10,
    "stimulus": -41,
    "response": 1,
    "correct": 1,
    "rt_fast": 0,
    "rt": 43985,
    "score": 2,
    "points_awarded": 52,
    "timestamp": "2025-01-13T15:38:56.549Z"
  },
  {
    "subject_id": 3676,
    "trial_index": 10,
    "type": 1,
    "item": 10,
    "stimulus": -41,
    "response": 1,
    "correct": 1,
    "rt_fast": 0,
    "rt": 36800,
    "score": 2,
    "points_awarded": 52,
    "timestamp": "2025-03-17T15:38:56.549Z"
  },
  {
    "subject_id": 1906,
    "trial_index": 8,
    "type": 1,
    "item": 10,
    "stimulus": -41,
    "response": 1,
    "correct": 1,
    "rt_fast": 0,
    "rt": 54021,
    "score": 2,
    "points_awarded": 52,
    "timestamp": "2025-05-05T15:38:56.549Z"
  },
  {
    "subject_id": 3392,
    "trial_index": 11,
    "type": 1,
    "item": 10,
    "stimulus": -41,
    "response": 1,
    "correct": 1,
    "rt_fast": 0,
    "rt": 36649,
    "score": 2,
    "points_awarded": 52,
    "timestamp": "2025-05-05T15:38:56.549Z"
  },
  {
    "subject_id": 3595,
    "trial_index": 3,
    "type": 1,
    "item": 10,
    "stimulus": -41,
    "response": 1,
    "correct": 1,
    "rt_fast": 0,
    "rt": 48727,
    "score": 2,
    "points_awarded": 52,
    "timestamp": "2025-05-05T15:38:56.549Z"
  },
  {
    "subject_id": 3601,
    "trial_index": 8,
    "type": 1,
    "item": 10,
    "stimulus": -41,
    "response": 1,
    "correct": 1,
    "rt_fast": 0,
    "rt": 49983,
    "score": 2,
    "points_awarded": 52,
    "timestamp": "2025-05-05T15:38:56.549Z"
  },
  {
    "subject_id": 4606,
    "trial_index": 11,
    "type": 1,
    "item": 10,
    "stimulus": -41,
    "response": 1,
    "correct": 1,
    "rt_fast": 0,
    "rt": 23246,
    "score": 2,
    "points_awarded": 52,
    "timestamp": "2025-02-17T15:38:56.549Z"
  },
  {
    "subject_id": 2985,
    "trial_index": 5,
    "type": 1,
    "item": 10,
    "stimulus": -41,
    "response": 1,
    "correct": 1,
    "rt_fast": 0,
    "rt": 50970,
    "score": 2,
    "points_awarded": 52,
    "timestamp": "2025-02-17T15:38:56.549Z"
  },
  {
    "subject_id": 3662,
    "trial_index": 1,
    "type": 1,
    "item": 10,
    "stimulus": -41,
    "response": 1,
    "correct": 1,
    "rt_fast": 0,
    "rt": 53940,
    "score": 2,
    "points_awarded": 52,
    "timestamp": "2025-02-17T15:38:56.549Z"
  },
  {
    "subject_id": 3593,
    "trial_index": 4,
    "type": 1,
    "item": 10,
    "stimulus": -41,
    "response": 1,
    "correct": 1,
    "rt_fast": 0,
    "rt": 8886,
    "score": 2,
    "points_awarded": 52,
    "timestamp": "2025-05-05T15:38:56.549Z"
  },
  {
    "subject_id": 3325,
    "trial_index": 2,
    "type": 1,
    "item": 10,
    "stimulus": -41,
    "response": 1,
    "correct": 1,
    "rt_fast": 0,
    "rt": 43537,
    "score": 2,
    "points_awarded": 52,
    "timestamp": "2025-03-24T15:38:56.549Z"
  },
  {
    "subject_id": 1869,
    "trial_index": 6,
    "type": 1,
    "item": 10,
    "stimulus": -41,
    "response": 1,
    "correct": 1,
    "rt_fast": 0,
    "rt": 34935,
    "score": 2,
    "points_awarded": 52,
    "timestamp": "2025-02-10T15:38:56.549Z"
  },
  {
    "subject_id": 3403,
    "trial_index": 1,
    "type": 1,
    "item": 10,
    "stimulus": -41,
    "response": 1,
    "correct": 1,
    "rt_fast": 0,
    "rt": 53626,
    "score": 2,
    "points_awarded": 52,
    "timestamp": "2025-03-24T15:38:56.549Z"
  },
  {
    "subject_id": 1806,
    "trial_index": 1,
    "type": 1,
    "item": 10,
    "stimulus": -41,
    "response": 1,
    "correct": 1,
    "rt_fast": 0,
    "rt": 87689,
    "score": 2,
    "points_awarded": 52,
    "timestamp": "2025-02-24T15:38:56.549Z"
  },
  {
    "subject_id": 2262,
    "trial_index": 6,
    "type": 1,
    "item": 10,
    "stimulus": -41,
    "response": 1,
    "correct": 1,
    "rt_fast": 0,
    "rt": 15703,
    "score": 2,
    "points_awarded": 52,
    "timestamp": "2025-01-27T15:38:56.549Z"
  },
  {
    "subject_id": 2257,
    "trial_index": 7,
    "type": 1,
    "item": 10,
    "stimulus": -43,
    "response": 3,
    "correct": 1,
    "rt_fast": 0,
    "rt": 51161,
    "score": 0,
    "points_awarded": 0,
    "timestamp": "2025-01-20T15:38:56.549Z"
  },
  {
    "subject_id": 2298,
    "trial_index": 4,
    "type": 1,
    "item": 10,
    "stimulus": -41,
    "response": 1,
    "correct": 1,
    "rt_fast": 0,
    "rt": 18908,
    "score": 2,
    "points_awarded": 52,
    "timestamp": "2025-03-31T15:38:56.549Z"
  },
  {
    "subject_id": 3683,
    "trial_index": 4,
    "type": 1,
    "item": 10,
    "stimulus": -41,
    "response": 1,
    "correct": 1,
    "rt_fast": 0,
    "rt": 90963,
    "score": 2,
    "points_awarded": 52,
    "timestamp": "2025-03-17T15:38:56.549Z"
  },
  {
    "subject_id": 3397,
    "trial_index": 1,
    "type": 1,
    "item": 10,
    "stimulus": -41,
    "response": 1,
    "correct": 1,
    "rt_fast": 0,
    "rt": 50267,
    "score": 2,
    "points_awarded": 52,
    "timestamp": "2025-05-05T15:38:56.549Z"
  },
  {
    "subject_id": 2075,
    "trial_index": 2,
    "type": 1,
    "item": 10,
    "stimulus": -41,
    "response": 1,
    "correct": 1,
    "rt_fast": 0,
    "rt": 62678,
    "score": 2,
    "points_awarded": 52,
    "timestamp": "2025-01-27T15:38:56.549Z"
  },
  {
    "subject_id": 4000,
    "trial_index": 1,
    "type": 1,
    "item": 10,
    "stimulus": -41,
    "response": 1,
    "correct": 1,
    "rt_fast": 0,
    "rt": 43063,
    "score": 2,
    "points_awarded": 52,
    "timestamp": "2025-03-03T15:38:56.549Z"
  },
  {
    "subject_id": 3572,
    "trial_index": 5,
    "type": 1,
    "item": 10,
    "stimulus": -41,
    "response": 1,
    "correct": 1,
    "rt_fast": 0,
    "rt": 71203,
    "score": 2,
    "points_awarded": 52,
    "timestamp": "2025-03-03T15:38:56.549Z"
  },
  {
    "subject_id": 3228,
    "trial_index": 5,
    "type": 1,
    "item": 10,
    "stimulus": -41,
    "response": 1,
    "correct": 1,
    "rt_fast": 0,
    "rt": 89016,
    "score": 2,
    "points_awarded": 52,
    "timestamp": "2025-01-13T15:38:56.549Z"
  },
  {
    "subject_id": 3806,
    "trial_index": 12,
    "type": 1,
    "item": 10,
    "stimulus": -41,
    "response": 1,
    "correct": 1,
    "rt_fast": 0,
    "rt": 19876,
    "score": 2,
    "points_awarded": 52,
    "timestamp": "2025-02-17T15:38:56.549Z"
  },
  {
    "subject_id": 3948,
    "trial_index": 4,
    "type": 1,
    "item": 10,
    "stimulus": -41,
    "response": 1,
    "correct": 1,
    "rt_fast": 0,
    "rt": 47661,
    "score": 2,
    "points_awarded": 52,
    "timestamp": "2025-01-13T15:38:56.549Z"
  },
  {
    "subject_id": 2078,
    "trial_index": 2,
    "type": 1,
    "item": 10,
    "stimulus": -41,
    "response": 1,
    "correct": 1,
    "rt_fast": 0,
    "rt": 40486,
    "score": 2,
    "points_awarded": 52,
    "timestamp": "2025-01-27T15:38:56.549Z"
  },
  {
    "subject_id": 3700,
    "trial_index": 1,
    "type": 1,
    "item": 10,
    "stimulus": -41,
    "response": 1,
    "correct": 1,
    "rt_fast": 0,
    "rt": 7032,
    "score": 2,
    "points_awarded": 52,
    "timestamp": "2025-03-03T15:38:56.549Z"
  },
  {
    "subject_id": 3062,
    "trial_index": 4,
    "type": 1,
    "item": 10,
    "stimulus": -41,
    "response": 1,
    "correct": 1,
    "rt_fast": 0,
    "rt": 16755,
    "score": 2,
    "points_awarded": 52,
    "timestamp": "2025-01-20T15:38:56.549Z"
  },
  {
    "subject_id": 2282,
    "trial_index": 7,
    "type": 1,
    "item": 10,
    "stimulus": -41,
    "response": 1,
    "correct": 1,
    "rt_fast": 0,
    "rt": 32713,
    "score": 2,
    "points_awarded": 52,
    "timestamp": "2025-03-31T15:38:56.549Z"
  },
  {
    "subject_id": 2256,
    "trial_index": 7,
    "type": 1,
    "item": 10,
    "stimulus": -41,
    "response": 1,
    "correct": 1,
    "rt_fast": 0,
    "rt": 78974,
    "score": 2,
    "points_awarded": 52,
    "timestamp": "2025-01-20T15:38:56.549Z"
  },
  {
    "subject_id": 3958,
    "trial_index": 7,
    "type": 1,
    "item": 10,
    "stimulus": -41,
    "response": 1,
    "correct": 1,
    "rt_fast": 0,
    "rt": 38239,
    "score": 2,
    "points_awarded": 52,
    "timestamp": "2025-03-03T15:38:56.549Z"
  },
  {
    "subject_id": 2858,
    "trial_index": 8,
    "type": 1,
    "item": 10,
    "stimulus": -41,
    "response": 1,
    "correct": 1,
    "rt_fast": 0,
    "rt": 30516,
    "score": 2,
    "points_awarded": 52,
    "timestamp": "2025-01-20T15:38:56.549Z"
  },
  {
    "subject_id": 4274,
    "trial_index": 3,
    "type": 1,
    "item": 10,
    "stimulus": -41,
    "response": 1,
    "correct": 1,
    "rt_fast": 0,
    "rt": 47421,
    "score": 2,
    "points_awarded": 52,
    "timestamp": "2025-05-05T15:38:56.549Z"
  },
  {
    "subject_id": 2265,
    "trial_index": 6,
    "type": 1,
    "item": 10,
    "stimulus": -41,
    "response": 1,
    "correct": 1,
    "rt_fast": 0,
    "rt": 103279,
    "score": 2,
    "points_awarded": 52,
    "timestamp": "2025-01-27T15:38:56.549Z"
  },
  {
    "subject_id": 1904,
    "trial_index": 5,
    "type": 1,
    "item": 10,
    "stimulus": -41,
    "response": 1,
    "correct": 1,
    "rt_fast": 0,
    "rt": 22759,
    "score": 2,
    "points_awarded": 52,
    "timestamp": "2025-05-05T15:38:56.549Z"
  },
  {
    "subject_id": 3584,
    "trial_index": 6,
    "type": 1,
    "item": 10,
    "stimulus": -41,
    "response": 1,
    "correct": 1,
    "rt_fast": 0,
    "rt": 60831,
    "score": 2,
    "points_awarded": 52,
    "timestamp": "2025-03-03T15:38:56.549Z"
  },
  {
    "subject_id": 3957,
    "trial_index": 17,
    "type": 1,
    "item": 10,
    "stimulus": -41,
    "response": 1,
    "correct": 1,
    "rt_fast": 0,
    "rt": 35637,
    "score": 2,
    "points_awarded": 52,
    "timestamp": "2025-03-03T15:38:56.549Z"
  },
  {
    "subject_id": 3654,
    "trial_index": 1,
    "type": 1,
    "item": 10,
    "stimulus": -41,
    "response": 1,
    "correct": 1,
    "rt_fast": 0,
    "rt": 34658,
    "score": 2,
    "points_awarded": 52,
    "timestamp": "2025-02-17T15:38:56.549Z"
  },
  {
    "subject_id": 3923,
    "trial_index": 1,
    "type": 1,
    "item": 10,
    "stimulus": -41,
    "response": 1,
    "correct": 1,
    "rt_fast": 0,
    "rt": 71700,
    "score": 2,
    "points_awarded": 52,
    "timestamp": "2025-01-20T15:38:56.549Z"
  },
  {
    "subject_id": 3689,
    "trial_index": 3,
    "type": 1,
    "item": 10,
    "stimulus": -41,
    "response": 1,
    "correct": 1,
    "rt_fast": 0,
    "rt": 6481,
    "score": 2,
    "points_awarded": 52,
    "timestamp": "2025-03-17T15:38:56.549Z"
  },
  {
    "subject_id": 3380,
    "trial_index": 13,
    "type": 1,
    "item": 10,
    "stimulus": -41,
    "response": 1,
    "correct": 1,
    "rt_fast": 0,
    "rt": 39097,
    "score": 2,
    "points_awarded": 52,
    "timestamp": "2025-03-31T15:38:56.549Z"
  },
  {
    "subject_id": 3325,
    "trial_index": 1,
    "type": 1,
    "item": 101,
    "stimulus": -41,
    "response": 1,
    "correct": 1,
    "rt_fast": 0,
    "rt": 37243,
    "score": 2,
    "points_awarded": 67,
    "timestamp": "2025-03-24T15:38:56.549Z"
  },
  {
    "subject_id": 3587,
    "trial_index": 7,
    "type": 1,
    "item": 101,
    "stimulus": -41,
    "response": 1,
    "correct": 1,
    "rt_fast": 0,
    "rt": 38237,
    "score": 2,
    "points_awarded": 67,
    "timestamp": "2025-05-05T15:38:56.549Z"
  },
  {
    "subject_id": 3799,
    "trial_index": 3,
    "type": 1,
    "item": 101,
    "stimulus": -41,
    "response": 1,
    "correct": 1,
    "rt_fast": 0,
    "rt": 54509,
    "score": 2,
    "points_awarded": 67,
    "timestamp": "2025-03-31T15:38:56.549Z"
  },
  {
    "subject_id": 4000,
    "trial_index": 8,
    "type": 1,
    "item": 101,
    "stimulus": -41,
    "response": 1,
    "correct": 1,
    "rt_fast": 0,
    "rt": 58565,
    "score": 2,
    "points_awarded": 67,
    "timestamp": "2025-03-03T15:38:56.549Z"
  },
  {
    "subject_id": 3623,
    "trial_index": 5,
    "type": 1,
    "item": 101,
    "stimulus": -41,
    "response": 1,
    "correct": 1,
    "rt_fast": 0,
    "rt": 58650,
    "score": 2,
    "points_awarded": 67,
    "timestamp": "2025-05-05T15:38:56.549Z"
  },
  {
    "subject_id": 3916,
    "trial_index": 1,
    "type": 1,
    "item": 101,
    "stimulus": -41,
    "response": 1,
    "correct": 1,
    "rt_fast": 0,
    "rt": 64060,
    "score": 2,
    "points_awarded": 67,
    "timestamp": "2025-03-03T15:38:56.549Z"
  },
  {
    "subject_id": 3975,
    "trial_index": 1,
    "type": 1,
    "item": 101,
    "stimulus": -43,
    "response": 2,
    "correct": 1,
    "rt_fast": 0,
    "rt": 53255,
    "score": 0,
    "points_awarded": 0,
    "timestamp": "2025-03-03T15:38:56.549Z"
  },
  {
    "subject_id": 3954,
    "trial_index": 6,
    "type": 1,
    "item": 101,
    "stimulus": -43,
    "response": 2,
    "correct": 1,
    "rt_fast": 0,
    "rt": 93360,
    "score": 0,
    "points_awarded": 0,
    "timestamp": "2025-05-05T15:38:56.549Z"
  },
  {
    "subject_id": 3336,
    "trial_index": 8,
    "type": 1,
    "item": 101,
    "stimulus": -43,
    "response": 2,
    "correct": 1,
    "rt_fast": 0,
    "rt": 67219,
    "score": 0,
    "points_awarded": 0,
    "timestamp": "2025-01-13T15:38:56.549Z"
  },
  {
    "subject_id": 4270,
    "trial_index": 11,
    "type": 1,
    "item": 101,
    "stimulus": -41,
    "response": 1,
    "correct": 1,
    "rt_fast": 0,
    "rt": 39726,
    "score": 2,
    "points_awarded": 67,
    "timestamp": "2025-05-05T15:38:56.549Z"
  },
  {
    "subject_id": 3667,
    "trial_index": 5,
    "type": 1,
    "item": 101,
    "stimulus": -41,
    "response": 1,
    "correct": 1,
    "rt_fast": 0,
    "rt": 40795,
    "score": 2,
    "points_awarded": 67,
    "timestamp": "2025-02-17T15:38:56.549Z"
  },
  {
    "subject_id": 3215,
    "trial_index": 6,
    "type": 1,
    "item": 101,
    "stimulus": -41,
    "response": 1,
    "correct": 1,
    "rt_fast": 0,
    "rt": 70254,
    "score": 2,
    "points_awarded": 67,
    "timestamp": "2025-01-13T15:38:56.549Z"
  },
  {
    "subject_id": 3585,
    "trial_index": 4,
    "type": 1,
    "item": 101,
    "stimulus": -41,
    "response": 1,
    "correct": 1,
    "rt_fast": 0,
    "rt": 39334,
    "score": 2,
    "points_awarded": 67,
    "timestamp": "2025-05-05T15:38:56.549Z"
  },
  {
    "subject_id": 3935,
    "trial_index": 16,
    "type": 1,
    "item": 101,
    "stimulus": -43,
    "response": 2,
    "correct": 1,
    "rt_fast": 0,
    "rt": 35295,
    "score": 0,
    "points_awarded": 0,
    "timestamp": "2025-01-13T15:38:56.549Z"
  },
  {
    "subject_id": 4274,
    "trial_index": 10,
    "type": 1,
    "item": 101,
    "stimulus": -41,
    "response": 1,
    "correct": 1,
    "rt_fast": 0,
    "rt": 43254,
    "score": 2,
    "points_awarded": 67,
    "timestamp": "2025-05-05T15:38:56.549Z"
  },
  {
    "subject_id": 3963,
    "trial_index": 9,
    "type": 1,
    "item": 101,
    "stimulus": -41,
    "response": 1,
    "correct": 1,
    "rt_fast": 0,
    "rt": 40074,
    "score": 2,
    "points_awarded": 67,
    "timestamp": "2025-02-24T15:38:56.549Z"
  },
  {
    "subject_id": 4166,
    "trial_index": 5,
    "type": 1,
    "item": 101,
    "stimulus": -41,
    "response": 1,
    "correct": 1,
    "rt_fast": 0,
    "rt": 135802,
    "score": 2,
    "points_awarded": 67,
    "timestamp": "2025-05-05T15:38:56.549Z"
  },
  {
    "subject_id": 3965,
    "trial_index": 1,
    "type": 1,
    "item": 101,
    "stimulus": -41,
    "response": 1,
    "correct": 1,
    "rt_fast": 0,
    "rt": 51275,
    "score": 2,
    "points_awarded": 67,
    "timestamp": "2025-05-05T15:38:56.549Z"
  },
  {
    "subject_id": 2979,
    "trial_index": 11,
    "type": 1,
    "item": 101,
    "stimulus": -41,
    "response": 1,
    "correct": 1,
    "rt_fast": 0,
    "rt": 42507,
    "score": 2,
    "points_awarded": 67,
    "timestamp": "2025-02-17T15:38:56.549Z"
  },
  {
    "subject_id": 3586,
    "trial_index": 1,
    "type": 1,
    "item": 101,
    "stimulus": -43,
    "response": 0,
    "correct": 1,
    "rt_fast": 0,
    "rt": 102884,
    "score": 0,
    "points_awarded": 0,
    "timestamp": "2025-05-05T15:38:56.549Z"
  },
  {
    "subject_id": 3841,
    "trial_index": 5,
    "type": 1,
    "item": 101,
    "stimulus": -41,
    "response": 1,
    "correct": 1,
    "rt_fast": 0,
    "rt": 52412,
    "score": 2,
    "points_awarded": 67,
    "timestamp": "2025-05-05T15:38:56.549Z"
  },
  {
    "subject_id": 4165,
    "trial_index": 14,
    "type": 1,
    "item": 101,
    "stimulus": -41,
    "response": 1,
    "correct": 1,
    "rt_fast": 0,
    "rt": 37762,
    "score": 2,
    "points_awarded": 67,
    "timestamp": "2025-05-05T15:38:56.549Z"
  },
  {
    "subject_id": 3832,
    "trial_index": 5,
    "type": 1,
    "item": 101,
    "stimulus": -41,
    "response": 1,
    "correct": 1,
    "rt_fast": 0,
    "rt": 24717,
    "score": 2,
    "points_awarded": 67,
    "timestamp": "2025-03-03T15:38:56.549Z"
  },
  {
    "subject_id": 3942,
    "trial_index": 1,
    "type": 1,
    "item": 101,
    "stimulus": -41,
    "response": 1,
    "correct": 1,
    "rt_fast": 0,
    "rt": 62451,
    "score": 2,
    "points_awarded": 67,
    "timestamp": "2025-01-13T15:38:56.549Z"
  },
  {
    "subject_id": 4268,
    "trial_index": 14,
    "type": 1,
    "item": 101,
    "stimulus": -41,
    "response": 1,
    "correct": 1,
    "rt_fast": 0,
    "rt": 31308,
    "score": 2,
    "points_awarded": 67,
    "timestamp": "2025-05-05T15:38:56.549Z"
  },
  {
    "subject_id": 3087,
    "trial_index": 7,
    "type": 1,
    "item": 101,
    "stimulus": -41,
    "response": 1,
    "correct": 1,
    "rt_fast": 0,
    "rt": 66129,
    "score": 2,
    "points_awarded": 67,
    "timestamp": "2025-03-24T15:38:56.549Z"
  },
  {
    "subject_id": 2278,
    "trial_index": 7,
    "type": 1,
    "item": 101,
    "stimulus": -41,
    "response": 1,
    "correct": 1,
    "rt_fast": 0,
    "rt": 56332,
    "score": 2,
    "points_awarded": 67,
    "timestamp": "2025-03-31T15:38:56.549Z"
  },
  {
    "subject_id": 3380,
    "trial_index": 20,
    "type": 1,
    "item": 101,
    "stimulus": -41,
    "response": 1,
    "correct": 1,
    "rt_fast": 0,
    "rt": 47970,
    "score": 2,
    "points_awarded": 67,
    "timestamp": "2025-03-31T15:38:56.549Z"
  },
  {
    "subject_id": 3683,
    "trial_index": 8,
    "type": 1,
    "item": 101,
    "stimulus": -41,
    "response": 1,
    "correct": 1,
    "rt_fast": 0,
    "rt": 53817,
    "score": 2,
    "points_awarded": 67,
    "timestamp": "2025-03-17T15:38:56.549Z"
  },
  {
    "subject_id": 3650,
    "trial_index": 8,
    "type": 1,
    "item": 101,
    "stimulus": -41,
    "response": 1,
    "correct": 1,
    "rt_fast": 0,
    "rt": 34506,
    "score": 2,
    "points_awarded": 67,
    "timestamp": "2025-02-17T15:38:56.549Z"
  },
  {
    "subject_id": 3675,
    "trial_index": 10,
    "type": 1,
    "item": 101,
    "stimulus": -41,
    "response": 1,
    "correct": 1,
    "rt_fast": 0,
    "rt": 40561,
    "score": 2,
    "points_awarded": 67,
    "timestamp": "2025-03-17T15:38:56.549Z"
  },
  {
    "subject_id": 3660,
    "trial_index": 5,
    "type": 1,
    "item": 101,
    "stimulus": -41,
    "response": 1,
    "correct": 1,
    "rt_fast": 0,
    "rt": 70941,
    "score": 2,
    "points_awarded": 67,
    "timestamp": "2025-02-17T15:38:56.549Z"
  },
  {
    "subject_id": 4340,
    "trial_index": 3,
    "type": 1,
    "item": 101,
    "stimulus": -41,
    "response": 1,
    "correct": 1,
    "rt_fast": 0,
    "rt": 71186,
    "score": 2,
    "points_awarded": 67,
    "timestamp": "2025-03-31T15:38:56.549Z"
  },
  {
    "subject_id": 1809,
    "trial_index": 5,
    "type": 1,
    "item": 101,
    "stimulus": -43,
    "response": 0,
    "correct": 1,
    "rt_fast": 0,
    "rt": 40245,
    "score": 0,
    "points_awarded": 0,
    "timestamp": "2025-02-24T15:38:56.549Z"
  },
  {
    "subject_id": 3847,
    "trial_index": 1,
    "type": 1,
    "item": 101,
    "stimulus": -43,
    "response": 3,
    "correct": 1,
    "rt_fast": 0,
    "rt": 47177,
    "score": 0,
    "points_awarded": 0,
    "timestamp": "2025-05-05T15:38:56.549Z"
  },
  {
    "subject_id": 3689,
    "trial_index": 18,
    "type": 1,
    "item": 101,
    "stimulus": -41,
    "response": 1,
    "correct": 1,
    "rt_fast": 0,
    "rt": 40850,
    "score": 2,
    "points_awarded": 67,
    "timestamp": "2025-03-17T15:38:56.549Z"
  },
  {
    "subject_id": 3324,
    "trial_index": 1,
    "type": 1,
    "item": 101,
    "stimulus": -43,
    "response": 0,
    "correct": 1,
    "rt_fast": 0,
    "rt": 76175,
    "score": 0,
    "points_awarded": 0,
    "timestamp": "2025-01-13T15:38:56.549Z"
  },
  {
    "subject_id": 3228,
    "trial_index": 2,
    "type": 1,
    "item": 101,
    "stimulus": -41,
    "response": 1,
    "correct": 1,
    "rt_fast": 0,
    "rt": 60781,
    "score": 2,
    "points_awarded": 67,
    "timestamp": "2025-01-13T15:38:56.549Z"
  },
  {
    "subject_id": 1868,
    "trial_index": 5,
    "type": 1,
    "item": 101,
    "stimulus": -41,
    "response": 1,
    "correct": 1,
    "rt_fast": 0,
    "rt": 80987,
    "score": 2,
    "points_awarded": 67,
    "timestamp": "2025-04-14T15:38:56.549Z"
  },
  {
    "subject_id": 3966,
    "trial_index": 12,
    "type": 1,
    "item": 101,
    "stimulus": -41,
    "response": 1,
    "correct": 1,
    "rt_fast": 0,
    "rt": 98116,
    "score": 2,
    "points_awarded": 67,
    "timestamp": "2025-01-13T15:38:56.549Z"
  },
  {
    "subject_id": 1906,
    "trial_index": 11,
    "type": 1,
    "item": 101,
    "stimulus": -41,
    "response": 1,
    "correct": 1,
    "rt_fast": 0,
    "rt": 37570,
    "score": 2,
    "points_awarded": 67,
    "timestamp": "2025-05-05T15:38:56.549Z"
  },
  {
    "subject_id": 4279,
    "trial_index": 11,
    "type": 1,
    "item": 101,
    "stimulus": -41,
    "response": 1,
    "correct": 1,
    "rt_fast": 0,
    "rt": 46547,
    "score": 2,
    "points_awarded": 67,
    "timestamp": "2025-05-05T15:38:56.549Z"
  },
  {
    "subject_id": 2983,
    "trial_index": 3,
    "type": 1,
    "item": 101,
    "stimulus": -41,
    "response": 1,
    "correct": 1,
    "rt_fast": 0,
    "rt": 38888,
    "score": 2,
    "points_awarded": 67,
    "timestamp": "2025-04-07T15:38:56.549Z"
  },
  {
    "subject_id": 3676,
    "trial_index": 11,
    "type": 1,
    "item": 101,
    "stimulus": -41,
    "response": 1,
    "correct": 1,
    "rt_fast": 0,
    "rt": 58246,
    "score": 2,
    "points_awarded": 67,
    "timestamp": "2025-03-17T15:38:56.549Z"
  },
  {
    "subject_id": 4161,
    "trial_index": 8,
    "type": 1,
    "item": 101,
    "stimulus": -41,
    "response": 1,
    "correct": 1,
    "rt_fast": 0,
    "rt": 57586,
    "score": 2,
    "points_awarded": 67,
    "timestamp": "2025-05-05T15:38:56.549Z"
  },
  {
    "subject_id": 3404,
    "trial_index": 8,
    "type": 1,
    "item": 101,
    "stimulus": -41,
    "response": 1,
    "correct": 1,
    "rt_fast": 0,
    "rt": 37888,
    "score": 2,
    "points_awarded": 67,
    "timestamp": "2025-05-05T15:38:56.549Z"
  },
  {
    "subject_id": 3290,
    "trial_index": 4,
    "type": 1,
    "item": 101,
    "stimulus": -41,
    "response": 1,
    "correct": 1,
    "rt_fast": 0,
    "rt": 53766,
    "score": 2,
    "points_awarded": 67,
    "timestamp": "2025-03-10T15:38:56.549Z"
  },
  {
    "subject_id": 1896,
    "trial_index": 4,
    "type": 1,
    "item": 101,
    "stimulus": -41,
    "response": 1,
    "correct": 1,
    "rt_fast": 0,
    "rt": 27723,
    "score": 2,
    "points_awarded": 67,
    "timestamp": "2025-05-05T15:38:56.549Z"
  },
  {
    "subject_id": 3664,
    "trial_index": 10,
    "type": 1,
    "item": 101,
    "stimulus": -41,
    "response": 1,
    "correct": 1,
    "rt_fast": 0,
    "rt": 34759,
    "score": 2,
    "points_awarded": 67,
    "timestamp": "2025-02-17T15:38:56.549Z"
  },
  {
    "subject_id": 3806,
    "trial_index": 13,
    "type": 1,
    "item": 101,
    "stimulus": -41,
    "response": 1,
    "correct": 1,
    "rt_fast": 0,
    "rt": 41607,
    "score": 2,
    "points_awarded": 67,
    "timestamp": "2025-02-17T15:38:56.549Z"
  },
  {
    "subject_id": 2295,
    "trial_index": 8,
    "type": 1,
    "item": 101,
    "stimulus": -43,
    "response": 2,
    "correct": 1,
    "rt_fast": 0,
    "rt": 12798,
    "score": 0,
    "points_awarded": 0,
    "timestamp": "2025-03-31T15:38:56.549Z"
  },
  {
    "subject_id": 2980,
    "trial_index": 14,
    "type": 1,
    "item": 101,
    "stimulus": -41,
    "response": 1,
    "correct": 1,
    "rt_fast": 0,
    "rt": 30505,
    "score": 2,
    "points_awarded": 67,
    "timestamp": "2025-02-17T15:38:56.549Z"
  },
  {
    "subject_id": 1889,
    "trial_index": 17,
    "type": 1,
    "item": 101,
    "stimulus": -41,
    "response": 1,
    "correct": 1,
    "rt_fast": 0,
    "rt": 28105,
    "score": 2,
    "points_awarded": 67,
    "timestamp": "2025-05-05T15:38:56.549Z"
  },
  {
    "subject_id": 3688,
    "trial_index": 5,
    "type": 1,
    "item": 101,
    "stimulus": -41,
    "response": 1,
    "correct": 1,
    "rt_fast": 0,
    "rt": 52963,
    "score": 2,
    "points_awarded": 67,
    "timestamp": "2025-03-17T15:38:56.549Z"
  },
  {
    "subject_id": 3367,
    "trial_index": 3,
    "type": 1,
    "item": 101,
    "stimulus": -43,
    "response": 2,
    "correct": 1,
    "rt_fast": 0,
    "rt": 149183,
    "score": 0,
    "points_awarded": 0,
    "timestamp": "2025-03-31T15:38:56.549Z"
  },
  {
    "subject_id": 4168,
    "trial_index": 7,
    "type": 1,
    "item": 101,
    "stimulus": -43,
    "response": 3,
    "correct": 1,
    "rt_fast": 0,
    "rt": 90951,
    "score": 0,
    "points_awarded": 0,
    "timestamp": "2025-05-05T15:38:56.549Z"
  },
  {
    "subject_id": 2981,
    "trial_index": 7,
    "type": 1,
    "item": 101,
    "stimulus": -41,
    "response": 1,
    "correct": 1,
    "rt_fast": 0,
    "rt": 38635,
    "score": 2,
    "points_awarded": 67,
    "timestamp": "2025-01-13T15:38:56.549Z"
  },
  {
    "subject_id": 3662,
    "trial_index": 9,
    "type": 1,
    "item": 101,
    "stimulus": -41,
    "response": 1,
    "correct": 1,
    "rt_fast": 0,
    "rt": 55826,
    "score": 2,
    "points_awarded": 67,
    "timestamp": "2025-02-17T15:38:56.549Z"
  },
  {
    "subject_id": 2853,
    "trial_index": 4,
    "type": 1,
    "item": 101,
    "stimulus": -41,
    "response": 1,
    "correct": 1,
    "rt_fast": 0,
    "rt": 94548,
    "score": 2,
    "points_awarded": 67,
    "timestamp": "2025-03-03T15:38:56.549Z"
  },
  {
    "subject_id": 3829,
    "trial_index": 5,
    "type": 1,
    "item": 101,
    "stimulus": -41,
    "response": 1,
    "correct": 1,
    "rt_fast": 0,
    "rt": 44052,
    "score": 2,
    "points_awarded": 67,
    "timestamp": "2025-05-05T15:38:56.549Z"
  },
  {
    "subject_id": 3070,
    "trial_index": 4,
    "type": 1,
    "item": 101,
    "stimulus": -41,
    "response": 1,
    "correct": 1,
    "rt_fast": 0,
    "rt": 33292,
    "score": 2,
    "points_awarded": 67,
    "timestamp": "2025-03-17T15:38:56.549Z"
  },
  {
    "subject_id": 1904,
    "trial_index": 3,
    "type": 1,
    "item": 101,
    "stimulus": -41,
    "response": 1,
    "correct": 1,
    "rt_fast": 0,
    "rt": 62505,
    "score": 2,
    "points_awarded": 67,
    "timestamp": "2025-05-05T15:38:56.549Z"
  },
  {
    "subject_id": 3289,
    "trial_index": 2,
    "type": 1,
    "item": 101,
    "stimulus": -41,
    "response": 1,
    "correct": 1,
    "rt_fast": 0,
    "rt": 42987,
    "score": 2,
    "points_awarded": 67,
    "timestamp": "2025-03-10T15:38:56.549Z"
  },
  {
    "subject_id": 3584,
    "trial_index": 5,
    "type": 1,
    "item": 101,
    "stimulus": -43,
    "response": 3,
    "correct": 1,
    "rt_fast": 0,
    "rt": 44388,
    "score": 0,
    "points_awarded": 0,
    "timestamp": "2025-03-03T15:38:56.549Z"
  },
  {
    "subject_id": 3287,
    "trial_index": 9,
    "type": 1,
    "item": 101,
    "stimulus": -41,
    "response": 1,
    "correct": 1,
    "rt_fast": 0,
    "rt": 53935,
    "score": 2,
    "points_awarded": 67,
    "timestamp": "2025-03-10T15:38:56.549Z"
  },
  {
    "subject_id": 3221,
    "trial_index": 5,
    "type": 1,
    "item": 101,
    "stimulus": -43,
    "response": 2,
    "correct": 1,
    "rt_fast": 0,
    "rt": 55077,
    "score": 0,
    "points_awarded": 0,
    "timestamp": "2025-01-13T15:38:56.549Z"
  },
  {
    "subject_id": 3404,
    "trial_index": 6,
    "type": 1,
    "item": 101,
    "stimulus": -41,
    "response": 1,
    "correct": 1,
    "rt_fast": 0,
    "rt": 44105,
    "score": 2,
    "points_awarded": 67,
    "timestamp": "2025-03-24T15:38:56.549Z"
  },
  {
    "subject_id": 3936,
    "trial_index": 7,
    "type": 1,
    "item": 101,
    "stimulus": -43,
    "response": 3,
    "correct": 1,
    "rt_fast": 0,
    "rt": 67550,
    "score": 0,
    "points_awarded": 0,
    "timestamp": "2025-01-13T15:38:56.549Z"
  },
  {
    "subject_id": 3962,
    "trial_index": 7,
    "type": 1,
    "item": 101,
    "stimulus": -43,
    "response": 2,
    "correct": 1,
    "rt_fast": 0,
    "rt": 55211,
    "score": 0,
    "points_awarded": 0,
    "timestamp": "2025-05-05T15:38:56.549Z"
  },
  {
    "subject_id": 3210,
    "trial_index": 6,
    "type": 1,
    "item": 101,
    "stimulus": -41,
    "response": 1,
    "correct": 1,
    "rt_fast": 0,
    "rt": 26103,
    "score": 2,
    "points_awarded": 67,
    "timestamp": "2025-01-13T15:38:56.549Z"
  },
  {
    "subject_id": 2978,
    "trial_index": 18,
    "type": 1,
    "item": 101,
    "stimulus": -41,
    "response": 1,
    "correct": 1,
    "rt_fast": 0,
    "rt": 22371,
    "score": 2,
    "points_awarded": 67,
    "timestamp": "2025-04-07T15:38:56.549Z"
  },
  {
    "subject_id": 4357,
    "trial_index": 14,
    "type": 1,
    "item": 101,
    "stimulus": -41,
    "response": 1,
    "correct": 1,
    "rt_fast": 0,
    "rt": 29354,
    "score": 2,
    "points_awarded": 67,
    "timestamp": "2025-03-31T15:38:56.549Z"
  },
  {
    "subject_id": 3957,
    "trial_index": 5,
    "type": 1,
    "item": 101,
    "stimulus": -41,
    "response": 1,
    "correct": 1,
    "rt_fast": 0,
    "rt": 29421,
    "score": 2,
    "points_awarded": 67,
    "timestamp": "2025-03-03T15:38:56.549Z"
  },
  {
    "subject_id": 3656,
    "trial_index": 13,
    "type": 1,
    "item": 101,
    "stimulus": -41,
    "response": 1,
    "correct": 1,
    "rt_fast": 0,
    "rt": 27630,
    "score": 2,
    "points_awarded": 67,
    "timestamp": "2025-02-17T15:38:56.549Z"
  },
  {
    "subject_id": 3392,
    "trial_index": 4,
    "type": 1,
    "item": 101,
    "stimulus": -41,
    "response": 1,
    "correct": 1,
    "rt_fast": 0,
    "rt": 34826,
    "score": 2,
    "points_awarded": 67,
    "timestamp": "2025-05-05T15:38:56.549Z"
  },
  {
    "subject_id": 4358,
    "trial_index": 21,
    "type": 1,
    "item": 101,
    "stimulus": -41,
    "response": 1,
    "correct": 1,
    "rt_fast": 0,
    "rt": 11293,
    "score": 2,
    "points_awarded": 67,
    "timestamp": "2025-04-28T15:38:56.549Z"
  },
  {
    "subject_id": 4273,
    "trial_index": 7,
    "type": 1,
    "item": 101,
    "stimulus": -43,
    "response": 3,
    "correct": 1,
    "rt_fast": 0,
    "rt": 49740,
    "score": 0,
    "points_awarded": 0,
    "timestamp": "2025-05-05T15:38:56.549Z"
  },
  {
    "subject_id": 4278,
    "trial_index": 16,
    "type": 1,
    "item": 101,
    "stimulus": -41,
    "response": 1,
    "correct": 1,
    "rt_fast": 0,
    "rt": 57261,
    "score": 2,
    "points_awarded": 67,
    "timestamp": "2025-05-05T15:38:56.549Z"
  },
  {
    "subject_id": 4169,
    "trial_index": 2,
    "type": 1,
    "item": 101,
    "stimulus": -41,
    "response": 1,
    "correct": 1,
    "rt_fast": 0,
    "rt": 48257,
    "score": 2,
    "points_awarded": 67,
    "timestamp": "2025-05-05T15:38:56.549Z"
  },
  {
    "subject_id": 4358,
    "trial_index": 7,
    "type": 1,
    "item": 101,
    "stimulus": -41,
    "response": 1,
    "correct": 1,
    "rt_fast": 0,
    "rt": 42000,
    "score": 2,
    "points_awarded": 67,
    "timestamp": "2025-03-31T15:38:56.549Z"
  },
  {
    "subject_id": 3687,
    "trial_index": 8,
    "type": 1,
    "item": 101,
    "stimulus": -41,
    "response": 1,
    "correct": 1,
    "rt_fast": 0,
    "rt": 13833,
    "score": 2,
    "points_awarded": 67,
    "timestamp": "2025-02-17T15:38:56.549Z"
  },
  {
    "subject_id": 3598,
    "trial_index": 4,
    "type": 1,
    "item": 101,
    "stimulus": -43,
    "response": 3,
    "correct": 1,
    "rt_fast": 0,
    "rt": 64927,
    "score": 0,
    "points_awarded": 0,
    "timestamp": "2025-05-05T15:38:56.549Z"
  },
  {
    "subject_id": 3330,
    "trial_index": 7,
    "type": 1,
    "item": 101,
    "stimulus": -43,
    "response": 2,
    "correct": 1,
    "rt_fast": 0,
    "rt": 72853,
    "score": 0,
    "points_awarded": 0,
    "timestamp": "2025-01-13T15:38:56.549Z"
  },
  {
    "subject_id": 3708,
    "trial_index": 7,
    "type": 1,
    "item": 101,
    "stimulus": -43,
    "response": 0,
    "correct": 1,
    "rt_fast": 0,
    "rt": 71322,
    "score": 0,
    "points_awarded": 0,
    "timestamp": "2025-01-13T15:38:56.549Z"
  },
  {
    "subject_id": 3582,
    "trial_index": 4,
    "type": 1,
    "item": 101,
    "stimulus": -41,
    "response": 1,
    "correct": 1,
    "rt_fast": 0,
    "rt": 28554,
    "score": 2,
    "points_awarded": 67,
    "timestamp": "2025-03-03T15:38:56.549Z"
  },
  {
    "subject_id": 4272,
    "trial_index": 10,
    "type": 1,
    "item": 101,
    "stimulus": -41,
    "response": 1,
    "correct": 1,
    "rt_fast": 0,
    "rt": 23696,
    "score": 2,
    "points_awarded": 67,
    "timestamp": "2025-05-05T15:38:56.549Z"
  },
  {
    "subject_id": 3658,
    "trial_index": 12,
    "type": 1,
    "item": 101,
    "stimulus": -41,
    "response": 1,
    "correct": 1,
    "rt_fast": 0,
    "rt": 45826,
    "score": 2,
    "points_awarded": 67,
    "timestamp": "2025-02-24T15:38:56.549Z"
  },
  {
    "subject_id": 2991,
    "trial_index": 11,
    "type": 1,
    "item": 101,
    "stimulus": -41,
    "response": 1,
    "correct": 1,
    "rt_fast": 0,
    "rt": 39330,
    "score": 2,
    "points_awarded": 67,
    "timestamp": "2025-02-17T15:38:56.549Z"
  },
  {
    "subject_id": 3397,
    "trial_index": 6,
    "type": 1,
    "item": 101,
    "stimulus": -43,
    "response": 2,
    "correct": 1,
    "rt_fast": 0,
    "rt": 63624,
    "score": 0,
    "points_awarded": 0,
    "timestamp": "2025-05-05T15:38:56.549Z"
  },
  {
    "subject_id": 1867,
    "trial_index": 7,
    "type": 1,
    "item": 101,
    "stimulus": -41,
    "response": 1,
    "correct": 1,
    "rt_fast": 0,
    "rt": 42816,
    "score": 2,
    "points_awarded": 67,
    "timestamp": "2025-04-07T15:38:56.549Z"
  },
  {
    "subject_id": 4156,
    "trial_index": 1,
    "type": 1,
    "item": 101,
    "stimulus": -41,
    "response": 1,
    "correct": 1,
    "rt_fast": 0,
    "rt": 37477,
    "score": 2,
    "points_awarded": 67,
    "timestamp": "2025-05-05T15:38:56.549Z"
  },
  {
    "subject_id": 3374,
    "trial_index": 4,
    "type": 1,
    "item": 101,
    "stimulus": -41,
    "response": 1,
    "correct": 1,
    "rt_fast": 0,
    "rt": 39417,
    "score": 2,
    "points_awarded": 67,
    "timestamp": "2025-03-31T15:38:56.549Z"
  },
  {
    "subject_id": 2988,
    "trial_index": 8,
    "type": 1,
    "item": 101,
    "stimulus": -41,
    "response": 1,
    "correct": 1,
    "rt_fast": 0,
    "rt": 28786,
    "score": 2,
    "points_awarded": 67,
    "timestamp": "2025-01-13T15:38:56.549Z"
  },
  {
    "subject_id": 3702,
    "trial_index": 13,
    "type": 1,
    "item": 101,
    "stimulus": -43,
    "response": 2,
    "correct": 1,
    "rt_fast": 0,
    "rt": 35548,
    "score": 0,
    "points_awarded": 0,
    "timestamp": "2025-01-13T15:38:56.549Z"
  },
  {
    "subject_id": 3700,
    "trial_index": 5,
    "type": 1,
    "item": 101,
    "stimulus": -41,
    "response": 1,
    "correct": 1,
    "rt_fast": 0,
    "rt": 35123,
    "score": 2,
    "points_awarded": 67,
    "timestamp": "2025-03-03T15:38:56.549Z"
  },
  {
    "subject_id": 2986,
    "trial_index": 4,
    "type": 1,
    "item": 101,
    "stimulus": -41,
    "response": 1,
    "correct": 1,
    "rt_fast": 0,
    "rt": 78107,
    "score": 2,
    "points_awarded": 67,
    "timestamp": "2025-02-24T15:38:56.549Z"
  },
  {
    "subject_id": 3403,
    "trial_index": 5,
    "type": 1,
    "item": 101,
    "stimulus": -43,
    "response": 0,
    "correct": 1,
    "rt_fast": 0,
    "rt": 63738,
    "score": 0,
    "points_awarded": 0,
    "timestamp": "2025-03-24T15:38:56.549Z"
  },
  {
    "subject_id": 4606,
    "trial_index": 4,
    "type": 1,
    "item": 101,
    "stimulus": -41,
    "response": 1,
    "correct": 1,
    "rt_fast": 0,
    "rt": 28478,
    "score": 2,
    "points_awarded": 67,
    "timestamp": "2025-02-17T15:38:56.549Z"
  },
  {
    "subject_id": 3335,
    "trial_index": 9,
    "type": 1,
    "item": 101,
    "stimulus": -41,
    "response": 1,
    "correct": 1,
    "rt_fast": 0,
    "rt": 19889,
    "score": 2,
    "points_awarded": 67,
    "timestamp": "2025-01-13T15:38:56.549Z"
  },
  {
    "subject_id": 3079,
    "trial_index": 9,
    "type": 1,
    "item": 101,
    "stimulus": -43,
    "response": 3,
    "correct": 1,
    "rt_fast": 0,
    "rt": 59040,
    "score": 0,
    "points_awarded": 0,
    "timestamp": "2025-03-24T15:38:56.549Z"
  },
  {
    "subject_id": 1800,
    "trial_index": 13,
    "type": 1,
    "item": 101,
    "stimulus": -43,
    "response": 2,
    "correct": 1,
    "rt_fast": 0,
    "rt": 29371,
    "score": 0,
    "points_awarded": 0,
    "timestamp": "2025-04-07T15:38:56.549Z"
  },
  {
    "subject_id": 3994,
    "trial_index": 19,
    "type": 1,
    "item": 101,
    "stimulus": -41,
    "response": 1,
    "correct": 1,
    "rt_fast": 0,
    "rt": 44666,
    "score": 2,
    "points_awarded": 67,
    "timestamp": "2025-03-03T15:38:56.549Z"
  },
  {
    "subject_id": 1946,
    "trial_index": 6,
    "type": 1,
    "item": 101,
    "stimulus": -41,
    "response": 1,
    "correct": 1,
    "rt_fast": 0,
    "rt": 49679,
    "score": 2,
    "points_awarded": 67,
    "timestamp": "2025-05-05T15:38:56.549Z"
  },
  {
    "subject_id": 3569,
    "trial_index": 11,
    "type": 1,
    "item": 101,
    "stimulus": -41,
    "response": 1,
    "correct": 1,
    "rt_fast": 0,
    "rt": 39883,
    "score": 2,
    "points_awarded": 67,
    "timestamp": "2025-03-03T15:38:56.549Z"
  },
  {
    "subject_id": 1802,
    "trial_index": 4,
    "type": 1,
    "item": 101,
    "stimulus": -41,
    "response": 1,
    "correct": 1,
    "rt_fast": 0,
    "rt": 47084,
    "score": 2,
    "points_awarded": 67,
    "timestamp": "2025-02-24T15:38:56.549Z"
  },
  {
    "subject_id": 3983,
    "trial_index": 4,
    "type": 1,
    "item": 101,
    "stimulus": -41,
    "response": 1,
    "correct": 1,
    "rt_fast": 0,
    "rt": 52360,
    "score": 2,
    "points_awarded": 67,
    "timestamp": "2025-01-13T15:38:56.549Z"
  },
  {
    "subject_id": 3801,
    "trial_index": 3,
    "type": 1,
    "item": 101,
    "stimulus": -41,
    "response": 1,
    "correct": 1,
    "rt_fast": 0,
    "rt": 102735,
    "score": 2,
    "points_awarded": 67,
    "timestamp": "2025-03-17T15:38:56.549Z"
  },
  {
    "subject_id": 1872,
    "trial_index": 6,
    "type": 1,
    "item": 101,
    "stimulus": -43,
    "response": 2,
    "correct": 1,
    "rt_fast": 0,
    "rt": 88614,
    "score": 0,
    "points_awarded": 0,
    "timestamp": "2025-03-17T15:38:56.549Z"
  },
  {
    "subject_id": 4271,
    "trial_index": 9,
    "type": 1,
    "item": 101,
    "stimulus": -41,
    "response": 1,
    "correct": 1,
    "rt_fast": 0,
    "rt": 26386,
    "score": 2,
    "points_awarded": 67,
    "timestamp": "2025-05-05T15:38:56.549Z"
  },
  {
    "subject_id": 2985,
    "trial_index": 17,
    "type": 1,
    "item": 101,
    "stimulus": -41,
    "response": 1,
    "correct": 1,
    "rt_fast": 0,
    "rt": 45523,
    "score": 2,
    "points_awarded": 67,
    "timestamp": "2025-02-17T15:38:56.549Z"
  },
  {
    "subject_id": 3563,
    "trial_index": 4,
    "type": 1,
    "item": 101,
    "stimulus": -41,
    "response": 1,
    "correct": 1,
    "rt_fast": 0,
    "rt": 101458,
    "score": 2,
    "points_awarded": 67,
    "timestamp": "2025-03-03T15:38:56.549Z"
  },
  {
    "subject_id": 4345,
    "trial_index": 2,
    "type": 1,
    "item": 101,
    "stimulus": -41,
    "response": 1,
    "correct": 1,
    "rt_fast": 0,
    "rt": 44146,
    "score": 2,
    "points_awarded": 67,
    "timestamp": "2025-04-07T15:38:56.549Z"
  },
  {
    "subject_id": 3593,
    "trial_index": 11,
    "type": 1,
    "item": 101,
    "stimulus": -41,
    "response": 1,
    "correct": 1,
    "rt_fast": 0,
    "rt": 62731,
    "score": 2,
    "points_awarded": 67,
    "timestamp": "2025-05-05T15:38:56.549Z"
  },
  {
    "subject_id": 3281,
    "trial_index": 3,
    "type": 1,
    "item": 101,
    "stimulus": -41,
    "response": 1,
    "correct": 1,
    "rt_fast": 0,
    "rt": 54449,
    "score": 2,
    "points_awarded": 67,
    "timestamp": "2025-03-10T15:38:56.549Z"
  },
  {
    "subject_id": 3981,
    "trial_index": 8,
    "type": 1,
    "item": 101,
    "stimulus": -41,
    "response": 1,
    "correct": 1,
    "rt_fast": 0,
    "rt": 62008,
    "score": 2,
    "points_awarded": 67,
    "timestamp": "2025-03-03T15:38:56.549Z"
  },
  {
    "subject_id": 4154,
    "trial_index": 1,
    "type": 1,
    "item": 101,
    "stimulus": -41,
    "response": 1,
    "correct": 1,
    "rt_fast": 0,
    "rt": 60088,
    "score": 2,
    "points_awarded": 67,
    "timestamp": "2025-05-05T15:38:56.549Z"
  },
  {
    "subject_id": 3194,
    "trial_index": 1,
    "type": 1,
    "item": 101,
    "stimulus": -41,
    "response": 1,
    "correct": 1,
    "rt_fast": 0,
    "rt": 32597,
    "score": 2,
    "points_awarded": 67,
    "timestamp": "2025-03-10T15:38:56.549Z"
  },
  {
    "subject_id": 3988,
    "trial_index": 5,
    "type": 1,
    "item": 101,
    "stimulus": -43,
    "response": 2,
    "correct": 1,
    "rt_fast": 0,
    "rt": 145746,
    "score": 0,
    "points_awarded": 0,
    "timestamp": "2025-03-03T15:38:56.549Z"
  },
  {
    "subject_id": 3958,
    "trial_index": 8,
    "type": 1,
    "item": 101,
    "stimulus": -43,
    "response": 0,
    "correct": 1,
    "rt_fast": 0,
    "rt": 43445,
    "score": 0,
    "points_awarded": 0,
    "timestamp": "2025-03-03T15:38:56.549Z"
  },
  {
    "subject_id": 3968,
    "trial_index": 6,
    "type": 1,
    "item": 101,
    "stimulus": -41,
    "response": 1,
    "correct": 1,
    "rt_fast": 0,
    "rt": 70020,
    "score": 2,
    "points_awarded": 67,
    "timestamp": "2025-05-05T15:38:56.549Z"
  },
  {
    "subject_id": 3291,
    "trial_index": 5,
    "type": 1,
    "item": 101,
    "stimulus": -41,
    "response": 1,
    "correct": 1,
    "rt_fast": 0,
    "rt": 54662,
    "score": 2,
    "points_awarded": 67,
    "timestamp": "2025-03-10T15:38:56.549Z"
  },
  {
    "subject_id": 1807,
    "trial_index": 3,
    "type": 1,
    "item": 101,
    "stimulus": -41,
    "response": 1,
    "correct": 1,
    "rt_fast": 0,
    "rt": 101111,
    "score": 2,
    "points_awarded": 67,
    "timestamp": "2025-02-24T15:38:56.549Z"
  },
  {
    "subject_id": 3665,
    "trial_index": 3,
    "type": 1,
    "item": 101,
    "stimulus": -43,
    "response": 0,
    "correct": 1,
    "rt_fast": 0,
    "rt": 97571,
    "score": 0,
    "points_awarded": 0,
    "timestamp": "2025-02-17T15:38:56.549Z"
  },
  {
    "subject_id": 3281,
    "trial_index": 2,
    "type": 1,
    "item": 102,
    "stimulus": -41,
    "response": 0,
    "correct": 1,
    "rt_fast": 0,
    "rt": 46256,
    "score": 2,
    "points_awarded": 60,
    "timestamp": "2025-01-27T15:38:56.549Z"
  },
  {
    "subject_id": 3507,
    "trial_index": 4,
    "type": 1,
    "item": 102,
    "stimulus": -41,
    "response": 0,
    "correct": 1,
    "rt_fast": 0,
    "rt": 57933,
    "score": 2,
    "points_awarded": 60,
    "timestamp": "2025-01-27T15:38:56.549Z"
  },
  {
    "subject_id": 3571,
    "trial_index": 3,
    "type": 1,
    "item": 102,
    "stimulus": -41,
    "response": 0,
    "correct": 1,
    "rt_fast": 0,
    "rt": 52379,
    "score": 2,
    "points_awarded": 60,
    "timestamp": "2025-01-20T15:38:56.549Z"
  },
  {
